"success","trial_type","trial_index","time_elapsed","internal_node_id","feedback","gender","age","country","email","turkcode","relevantDim","condition","browserinfo","bonus","view_history","rt","responses","stimulus","button_pressed","i","key_press","earnedThis","earnedCumulative","url","k"
"true","fullscreen","0","10330","0.0-0.0","full","Female","37","United States of America","","C676009","WA","freqGain","Mozilla/5.0 (Windows NT 10.0; Win64; x64) AppleWebKit/537.36 (KHTML, like Gecko) Chrome/81.0.4044.138 Safari/537.36","1.28","","","","","","","","","","",""
"","instructions","1","79901","0.0-1.0-0.0","full","Female","37","United States of America","","C676009","WA","freqGain","Mozilla/5.0 (Windows NT 10.0; Win64; x64) AppleWebKit/537.36 (KHTML, like Gecko) Chrome/81.0.4044.138 Safari/537.36","1.28","[{""page_index"":0,""viewing_time"":12066},{""page_index"":1,""viewing_time"":35863},{""page_index"":2,""viewing_time"":21632}]","69562","","","","","","","","",""
"","survey-html-form","2","126364","0.0-1.0-1.0","full","Female","37","United States of America","","C676009","WA","freqGain","Mozilla/5.0 (Windows NT 10.0; Win64; x64) AppleWebKit/537.36 (KHTML, like Gecko) Chrome/81.0.4044.138 Safari/537.36","1.28","","46458.71499995701","{""legs"":""checked"",""body"":""checked"",""wings"":""checked"",""antennae"":""checked"",""change"":""no"",""telldangerous"":""feature"",""avoidinfo"":""noInfo""}","","","","","","","",""
"","html-button-response","3","128986","0.0-1.0-2.0-0.0","full","Female","37","United States of America","","C676009","WA","freqGain","Mozilla/5.0 (Windows NT 10.0; Win64; x64) AppleWebKit/537.36 (KHTML, like Gecko) Chrome/81.0.4044.138 Safari/537.36","1.28","","2619","","Oh no! One of your answers was incorrect. Let's try again.","0","","","","","",""
"","instructions","4","164251","0.0-1.1-0.1","full","Female","37","United States of America","","C676009","WA","freqGain","Mozilla/5.0 (Windows NT 10.0; Win64; x64) AppleWebKit/537.36 (KHTML, like Gecko) Chrome/81.0.4044.138 Safari/537.36","1.28","[{""page_index"":0,""viewing_time"":6640},{""page_index"":1,""viewing_time"":14230},{""page_index"":2,""viewing_time"":14392}]","35264","","","","","","","","",""
"","survey-html-form","5","196852","0.0-1.1-1.1","full","Female","37","United States of America","","C676009","WA","freqGain","Mozilla/5.0 (Windows NT 10.0; Win64; x64) AppleWebKit/537.36 (KHTML, like Gecko) Chrome/81.0.4044.138 Safari/537.36","1.28","","32597.309999982826","{""legs"":""checked"",""body"":""checked"",""wings"":""checked"",""antennae"":""checked"",""change"":""no"",""telldangerous"":""feature"",""avoidinfo"":""info""}","","","","","","","",""
"","html-button-response","6","198585","0.0-2.0","full","Female","37","United States of America","","C676009","WA","freqGain","Mozilla/5.0 (Windows NT 10.0; Win64; x64) AppleWebKit/537.36 (KHTML, like Gecko) Chrome/81.0.4044.138 Safari/537.36","1.28","","1730","","<p>Well done! This is now the last page of instructions.</p> <p>You're going to start experiment now.</p>","0","","","","","",""
"","html-button-response","7","201489","0.0-3.0-0.0","full","Female","37","United States of America","","C676009","WA","freqGain","Mozilla/5.0 (Windows NT 10.0; Win64; x64) AppleWebKit/537.36 (KHTML, like Gecko) Chrome/81.0.4044.138 Safari/537.36","1.28","","2901","","<img src = 'img/A0-B1-L0-W1.jpg' width = '600'>","0","1","","","","",""
"","html-keyboard-response","8","203492","0.0-3.0-1.0","full","Female","37","United States of America","","C676009","WA","freqGain","Mozilla/5.0 (Windows NT 10.0; Win64; x64) AppleWebKit/537.36 (KHTML, like Gecko) Chrome/81.0.4044.138 Safari/537.36","1.28","","null","","Ouch, you were stung! You lost <b>-1 </b>point.","","1","null","-1","49","",""
"","html-button-response","9","205600","0.0-3.0-0.1","full","Female","37","United States of America","","C676009","WA","freqGain","Mozilla/5.0 (Windows NT 10.0; Win64; x64) AppleWebKit/537.36 (KHTML, like Gecko) Chrome/81.0.4044.138 Safari/537.36","1.28","","2104","","<img src = 'img/A1-B1-L0-W0.jpg' width = '600'>","1","2","","","","",""
"","html-keyboard-response","10","207602","0.0-3.0-1.1","full","Female","37","United States of America","","C676009","WA","freqGain","Mozilla/5.0 (Windows NT 10.0; Win64; x64) AppleWebKit/537.36 (KHTML, like Gecko) Chrome/81.0.4044.138 Safari/537.36","1.28","","null","","Whew, you avoided being stung! You earned <b>0 </b> points.","","2","null","0","49","",""
"","html-button-response","11","209848","0.0-3.0-0.2","full","Female","37","United States of America","","C676009","WA","freqGain","Mozilla/5.0 (Windows NT 10.0; Win64; x64) AppleWebKit/537.36 (KHTML, like Gecko) Chrome/81.0.4044.138 Safari/537.36","1.28","","2244","","<img src = 'img/A1-B0-L0-W1.jpg' width = '600'>","0","3","","","","",""
"","html-keyboard-response","12","211851","0.0-3.0-1.2","full","Female","37","United States of America","","C676009","WA","freqGain","Mozilla/5.0 (Windows NT 10.0; Win64; x64) AppleWebKit/537.36 (KHTML, like Gecko) Chrome/81.0.4044.138 Safari/537.36","1.28","","null","","You successfully harvested honey! You earned <b>3 </b>points.","","3","null","3","52","",""
"","html-button-response","13","213601","0.0-3.0-0.3","full","Female","37","United States of America","","C676009","WA","freqGain","Mozilla/5.0 (Windows NT 10.0; Win64; x64) AppleWebKit/537.36 (KHTML, like Gecko) Chrome/81.0.4044.138 Safari/537.36","1.28","","1747","","<img src = 'img/A0-B1-L1-W1.jpg' width = '600'>","1","4","","","","",""
"","html-keyboard-response","14","215603","0.0-3.0-1.3","full","Female","37","United States of America","","C676009","WA","freqGain","Mozilla/5.0 (Windows NT 10.0; Win64; x64) AppleWebKit/537.36 (KHTML, like Gecko) Chrome/81.0.4044.138 Safari/537.36","1.28","","null","","Whew, you avoided being stung! You earned <b>0 </b> points.","","4","null","0","52","",""
"","html-button-response","15","217073","0.0-3.0-0.4","full","Female","37","United States of America","","C676009","WA","freqGain","Mozilla/5.0 (Windows NT 10.0; Win64; x64) AppleWebKit/537.36 (KHTML, like Gecko) Chrome/81.0.4044.138 Safari/537.36","1.28","","1468","","<img src = 'img/A1-B0-L1-W1.jpg' width = '600'>","0","5","","","","",""
"","html-keyboard-response","16","219074","0.0-3.0-1.4","full","Female","37","United States of America","","C676009","WA","freqGain","Mozilla/5.0 (Windows NT 10.0; Win64; x64) AppleWebKit/537.36 (KHTML, like Gecko) Chrome/81.0.4044.138 Safari/537.36","1.28","","null","","You successfully harvested honey! You earned <b>3 </b>points.","","5","null","3","55","",""
"","html-button-response","17","220920","0.0-3.0-0.5","full","Female","37","United States of America","","C676009","WA","freqGain","Mozilla/5.0 (Windows NT 10.0; Win64; x64) AppleWebKit/537.36 (KHTML, like Gecko) Chrome/81.0.4044.138 Safari/537.36","1.28","","1844","","<img src = 'img/A0-B0-L0-W1.jpg' width = '600'>","0","6","","","","",""
"","html-keyboard-response","18","222922","0.0-3.0-1.5","full","Female","37","United States of America","","C676009","WA","freqGain","Mozilla/5.0 (Windows NT 10.0; Win64; x64) AppleWebKit/537.36 (KHTML, like Gecko) Chrome/81.0.4044.138 Safari/537.36","1.28","","null","","Ouch, you were stung! You lost <b>-1 </b>point.","","6","null","-1","54","",""
"","html-button-response","19","225127","0.0-3.0-0.6","full","Female","37","United States of America","","C676009","WA","freqGain","Mozilla/5.0 (Windows NT 10.0; Win64; x64) AppleWebKit/537.36 (KHTML, like Gecko) Chrome/81.0.4044.138 Safari/537.36","1.28","","2203","","<img src = 'img/A1-B0-L0-W0.jpg' width = '600'>","0","7","","","","",""
"","html-keyboard-response","20","227129","0.0-3.0-1.6","full","Female","37","United States of America","","C676009","WA","freqGain","Mozilla/5.0 (Windows NT 10.0; Win64; x64) AppleWebKit/537.36 (KHTML, like Gecko) Chrome/81.0.4044.138 Safari/537.36","1.28","","null","","Ouch, you were stung! You lost <b>-1 </b>point.","","7","null","-1","53","",""
"","html-button-response","21","230704","0.0-3.0-0.7","full","Female","37","United States of America","","C676009","WA","freqGain","Mozilla/5.0 (Windows NT 10.0; Win64; x64) AppleWebKit/537.36 (KHTML, like Gecko) Chrome/81.0.4044.138 Safari/537.36","1.28","","3573","","<img src = 'img/A0-B0-L1-W0.jpg' width = '600'>","0","8","","","","",""
"","html-keyboard-response","22","232706","0.0-3.0-1.7","full","Female","37","United States of America","","C676009","WA","freqGain","Mozilla/5.0 (Windows NT 10.0; Win64; x64) AppleWebKit/537.36 (KHTML, like Gecko) Chrome/81.0.4044.138 Safari/537.36","1.28","","null","","Ouch, you were stung! You lost <b>-1 </b>point.","","8","null","-1","52","",""
"","html-button-response","23","234768","0.0-3.0-0.8","full","Female","37","United States of America","","C676009","WA","freqGain","Mozilla/5.0 (Windows NT 10.0; Win64; x64) AppleWebKit/537.36 (KHTML, like Gecko) Chrome/81.0.4044.138 Safari/537.36","1.28","","2060","","<img src = 'img/A0-B0-L0-W0.jpg' width = '600'>","1","9","","","","",""
"","html-keyboard-response","24","236770","0.0-3.0-1.8","full","Female","37","United States of America","","C676009","WA","freqGain","Mozilla/5.0 (Windows NT 10.0; Win64; x64) AppleWebKit/537.36 (KHTML, like Gecko) Chrome/81.0.4044.138 Safari/537.36","1.28","","null","","Whew, you avoided being stung! You earned <b>0 </b> points.","","9","null","0","52","",""
"","html-button-response","25","238279","0.0-3.0-0.9","full","Female","37","United States of America","","C676009","WA","freqGain","Mozilla/5.0 (Windows NT 10.0; Win64; x64) AppleWebKit/537.36 (KHTML, like Gecko) Chrome/81.0.4044.138 Safari/537.36","1.28","","1507","","<img src = 'img/A0-B1-L0-W0.jpg' width = '600'>","1","10","","","","",""
"","html-keyboard-response","26","240282","0.0-3.0-1.9","full","Female","37","United States of America","","C676009","WA","freqGain","Mozilla/5.0 (Windows NT 10.0; Win64; x64) AppleWebKit/537.36 (KHTML, like Gecko) Chrome/81.0.4044.138 Safari/537.36","1.28","","null","","Whew, you avoided being stung! You earned <b>0 </b> points.","","10","null","0","52","",""
"","html-button-response","27","242915","0.0-3.0-0.10","full","Female","37","United States of America","","C676009","WA","freqGain","Mozilla/5.0 (Windows NT 10.0; Win64; x64) AppleWebKit/537.36 (KHTML, like Gecko) Chrome/81.0.4044.138 Safari/537.36","1.28","","2631","","<img src = 'img/A0-B0-L1-W1.jpg' width = '600'>","1","11","","","","",""
"","html-keyboard-response","28","244917","0.0-3.0-1.10","full","Female","37","United States of America","","C676009","WA","freqGain","Mozilla/5.0 (Windows NT 10.0; Win64; x64) AppleWebKit/537.36 (KHTML, like Gecko) Chrome/81.0.4044.138 Safari/537.36","1.28","","null","","Whew, you avoided being stung! You earned <b>0 </b> points.","","11","null","0","52","",""
"","html-button-response","29","247695","0.0-3.0-0.11","full","Female","37","United States of America","","C676009","WA","freqGain","Mozilla/5.0 (Windows NT 10.0; Win64; x64) AppleWebKit/537.36 (KHTML, like Gecko) Chrome/81.0.4044.138 Safari/537.36","1.28","","2775","","<img src = 'img/A1-B1-L0-W1.jpg' width = '600'>","1","12","","","","",""
"","html-keyboard-response","30","249696","0.0-3.0-1.11","full","Female","37","United States of America","","C676009","WA","freqGain","Mozilla/5.0 (Windows NT 10.0; Win64; x64) AppleWebKit/537.36 (KHTML, like Gecko) Chrome/81.0.4044.138 Safari/537.36","1.28","","null","","Oops, you avoided a friendly hive. You earned <b>0 </b>points.","","12","null","0","52","",""
"","html-button-response","31","251707","0.0-3.0-0.12","full","Female","37","United States of America","","C676009","WA","freqGain","Mozilla/5.0 (Windows NT 10.0; Win64; x64) AppleWebKit/537.36 (KHTML, like Gecko) Chrome/81.0.4044.138 Safari/537.36","1.28","","2008","","<img src = 'img/A0-B1-L1-W0.jpg' width = '600'>","1","13","","","","",""
"","html-keyboard-response","32","253708","0.0-3.0-1.12","full","Female","37","United States of America","","C676009","WA","freqGain","Mozilla/5.0 (Windows NT 10.0; Win64; x64) AppleWebKit/537.36 (KHTML, like Gecko) Chrome/81.0.4044.138 Safari/537.36","1.28","","null","","Whew, you avoided being stung! You earned <b>0 </b> points.","","13","null","0","52","",""
"","html-button-response","33","257582","0.0-3.0-0.13","full","Female","37","United States of America","","C676009","WA","freqGain","Mozilla/5.0 (Windows NT 10.0; Win64; x64) AppleWebKit/537.36 (KHTML, like Gecko) Chrome/81.0.4044.138 Safari/537.36","1.28","","3872","","<img src = 'img/A1-B0-L1-W0.jpg' width = '600'>","0","14","","","","",""
"","html-keyboard-response","34","259585","0.0-3.0-1.13","full","Female","37","United States of America","","C676009","WA","freqGain","Mozilla/5.0 (Windows NT 10.0; Win64; x64) AppleWebKit/537.36 (KHTML, like Gecko) Chrome/81.0.4044.138 Safari/537.36","1.28","","null","","Ouch, you were stung! You lost <b>-1 </b>point.","","14","null","-1","51","",""
"","html-button-response","35","261470","0.0-3.0-0.14","full","Female","37","United States of America","","C676009","WA","freqGain","Mozilla/5.0 (Windows NT 10.0; Win64; x64) AppleWebKit/537.36 (KHTML, like Gecko) Chrome/81.0.4044.138 Safari/537.36","1.28","","1884","","<img src = 'img/A1-B1-L1-W0.jpg' width = '600'>","1","15","","","","",""
"","html-keyboard-response","36","263474","0.0-3.0-1.14","full","Female","37","United States of America","","C676009","WA","freqGain","Mozilla/5.0 (Windows NT 10.0; Win64; x64) AppleWebKit/537.36 (KHTML, like Gecko) Chrome/81.0.4044.138 Safari/537.36","1.28","","null","","Whew, you avoided being stung! You earned <b>0 </b> points.","","15","null","0","51","",""
"","html-button-response","37","265262","0.0-3.0-0.15","full","Female","37","United States of America","","C676009","WA","freqGain","Mozilla/5.0 (Windows NT 10.0; Win64; x64) AppleWebKit/537.36 (KHTML, like Gecko) Chrome/81.0.4044.138 Safari/537.36","1.28","","1786","","<img src = 'img/A1-B1-L1-W1.jpg' width = '600'>","1","16","","","","",""
"","html-keyboard-response","38","267263","0.0-3.0-1.15","full","Female","37","United States of America","","C676009","WA","freqGain","Mozilla/5.0 (Windows NT 10.0; Win64; x64) AppleWebKit/537.36 (KHTML, like Gecko) Chrome/81.0.4044.138 Safari/537.36","1.28","","null","","Oops, you avoided a friendly hive. You earned <b>0 </b>points.","","16","null","0","51","",""
"","html-button-response","39","269846","0.0-3.0-0.16","full","Female","37","United States of America","","C676009","WA","freqGain","Mozilla/5.0 (Windows NT 10.0; Win64; x64) AppleWebKit/537.36 (KHTML, like Gecko) Chrome/81.0.4044.138 Safari/537.36","1.28","","2580","","<img src = 'img/A0-B0-L1-W0.jpg' width = '600'>","1","17","","","","",""
"","html-keyboard-response","40","271849","0.0-3.0-1.16","full","Female","37","United States of America","","C676009","WA","freqGain","Mozilla/5.0 (Windows NT 10.0; Win64; x64) AppleWebKit/537.36 (KHTML, like Gecko) Chrome/81.0.4044.138 Safari/537.36","1.28","","null","","Whew, you avoided being stung! You earned <b>0 </b> points.","","17","null","0","51","",""
"","html-button-response","41","273655","0.0-3.0-0.17","full","Female","37","United States of America","","C676009","WA","freqGain","Mozilla/5.0 (Windows NT 10.0; Win64; x64) AppleWebKit/537.36 (KHTML, like Gecko) Chrome/81.0.4044.138 Safari/537.36","1.28","","1803","","<img src = 'img/A0-B0-L0-W1.jpg' width = '600'>","1","18","","","","",""
"","html-keyboard-response","42","275657","0.0-3.0-1.17","full","Female","37","United States of America","","C676009","WA","freqGain","Mozilla/5.0 (Windows NT 10.0; Win64; x64) AppleWebKit/537.36 (KHTML, like Gecko) Chrome/81.0.4044.138 Safari/537.36","1.28","","null","","Whew, you avoided being stung! You earned <b>0 </b> points.","","18","null","0","51","",""
"","html-button-response","43","277359","0.0-3.0-0.18","full","Female","37","United States of America","","C676009","WA","freqGain","Mozilla/5.0 (Windows NT 10.0; Win64; x64) AppleWebKit/537.36 (KHTML, like Gecko) Chrome/81.0.4044.138 Safari/537.36","1.28","","1699","","<img src = 'img/A0-B0-L1-W1.jpg' width = '600'>","1","19","","","","",""
"","html-keyboard-response","44","279362","0.0-3.0-1.18","full","Female","37","United States of America","","C676009","WA","freqGain","Mozilla/5.0 (Windows NT 10.0; Win64; x64) AppleWebKit/537.36 (KHTML, like Gecko) Chrome/81.0.4044.138 Safari/537.36","1.28","","null","","Whew, you avoided being stung! You earned <b>0 </b> points.","","19","null","0","51","",""
"","html-button-response","45","281719","0.0-3.0-0.19","full","Female","37","United States of America","","C676009","WA","freqGain","Mozilla/5.0 (Windows NT 10.0; Win64; x64) AppleWebKit/537.36 (KHTML, like Gecko) Chrome/81.0.4044.138 Safari/537.36","1.28","","2356","","<img src = 'img/A0-B1-L0-W0.jpg' width = '600'>","1","20","","","","",""
"","html-keyboard-response","46","283720","0.0-3.0-1.19","full","Female","37","United States of America","","C676009","WA","freqGain","Mozilla/5.0 (Windows NT 10.0; Win64; x64) AppleWebKit/537.36 (KHTML, like Gecko) Chrome/81.0.4044.138 Safari/537.36","1.28","","null","","Whew, you avoided being stung! You earned <b>0 </b> points.","","20","null","0","51","",""
"","html-button-response","47","287797","0.0-3.0-0.20","full","Female","37","United States of America","","C676009","WA","freqGain","Mozilla/5.0 (Windows NT 10.0; Win64; x64) AppleWebKit/537.36 (KHTML, like Gecko) Chrome/81.0.4044.138 Safari/537.36","1.28","","4075","","<img src = 'img/A0-B1-L1-W1.jpg' width = '600'>","1","21","","","","",""
"","html-keyboard-response","48","289799","0.0-3.0-1.20","full","Female","37","United States of America","","C676009","WA","freqGain","Mozilla/5.0 (Windows NT 10.0; Win64; x64) AppleWebKit/537.36 (KHTML, like Gecko) Chrome/81.0.4044.138 Safari/537.36","1.28","","null","","Whew, you avoided being stung! You earned <b>0 </b> points.","","21","null","0","51","",""
"","html-button-response","49","291981","0.0-3.0-0.21","full","Female","37","United States of America","","C676009","WA","freqGain","Mozilla/5.0 (Windows NT 10.0; Win64; x64) AppleWebKit/537.36 (KHTML, like Gecko) Chrome/81.0.4044.138 Safari/537.36","1.28","","2180","","<img src = 'img/A1-B0-L1-W0.jpg' width = '600'>","1","22","","","","",""
"","html-keyboard-response","50","293983","0.0-3.0-1.21","full","Female","37","United States of America","","C676009","WA","freqGain","Mozilla/5.0 (Windows NT 10.0; Win64; x64) AppleWebKit/537.36 (KHTML, like Gecko) Chrome/81.0.4044.138 Safari/537.36","1.28","","null","","Whew, you avoided being stung! You earned <b>0 </b> points.","","22","null","0","51","",""
"","html-button-response","51","296789","0.0-3.0-0.22","full","Female","37","United States of America","","C676009","WA","freqGain","Mozilla/5.0 (Windows NT 10.0; Win64; x64) AppleWebKit/537.36 (KHTML, like Gecko) Chrome/81.0.4044.138 Safari/537.36","1.28","","2804","","<img src = 'img/A1-B0-L0-W1.jpg' width = '600'>","0","23","","","","",""
"","html-keyboard-response","52","298792","0.0-3.0-1.22","full","Female","37","United States of America","","C676009","WA","freqGain","Mozilla/5.0 (Windows NT 10.0; Win64; x64) AppleWebKit/537.36 (KHTML, like Gecko) Chrome/81.0.4044.138 Safari/537.36","1.28","","null","","You successfully harvested honey! You earned <b>3 </b>points.","","23","null","3","54","",""
"","html-button-response","53","301861","0.0-3.0-0.23","full","Female","37","United States of America","","C676009","WA","freqGain","Mozilla/5.0 (Windows NT 10.0; Win64; x64) AppleWebKit/537.36 (KHTML, like Gecko) Chrome/81.0.4044.138 Safari/537.36","1.28","","3067","","<img src = 'img/A1-B1-L1-W1.jpg' width = '600'>","1","24","","","","",""
"","html-keyboard-response","54","303863","0.0-3.0-1.23","full","Female","37","United States of America","","C676009","WA","freqGain","Mozilla/5.0 (Windows NT 10.0; Win64; x64) AppleWebKit/537.36 (KHTML, like Gecko) Chrome/81.0.4044.138 Safari/537.36","1.28","","null","","Oops, you avoided a friendly hive. You earned <b>0 </b>points.","","24","null","0","54","",""
"","html-button-response","55","308076","0.0-3.0-0.24","full","Female","37","United States of America","","C676009","WA","freqGain","Mozilla/5.0 (Windows NT 10.0; Win64; x64) AppleWebKit/537.36 (KHTML, like Gecko) Chrome/81.0.4044.138 Safari/537.36","1.28","","4211","","<img src = 'img/A0-B0-L0-W0.jpg' width = '600'>","1","25","","","","",""
"","html-keyboard-response","56","310079","0.0-3.0-1.24","full","Female","37","United States of America","","C676009","WA","freqGain","Mozilla/5.0 (Windows NT 10.0; Win64; x64) AppleWebKit/537.36 (KHTML, like Gecko) Chrome/81.0.4044.138 Safari/537.36","1.28","","null","","Whew, you avoided being stung! You earned <b>0 </b> points.","","25","null","0","54","",""
"","html-button-response","57","311446","0.0-3.0-0.25","full","Female","37","United States of America","","C676009","WA","freqGain","Mozilla/5.0 (Windows NT 10.0; Win64; x64) AppleWebKit/537.36 (KHTML, like Gecko) Chrome/81.0.4044.138 Safari/537.36","1.28","","1366","","<img src = 'img/A1-B0-L1-W1.jpg' width = '600'>","1","26","","","","",""
"","html-keyboard-response","58","313448","0.0-3.0-1.25","full","Female","37","United States of America","","C676009","WA","freqGain","Mozilla/5.0 (Windows NT 10.0; Win64; x64) AppleWebKit/537.36 (KHTML, like Gecko) Chrome/81.0.4044.138 Safari/537.36","1.28","","null","","Oops, you avoided a friendly hive. You earned <b>0 </b>points.","","26","null","0","54","",""
"","html-button-response","59","317372","0.0-3.0-0.26","full","Female","37","United States of America","","C676009","WA","freqGain","Mozilla/5.0 (Windows NT 10.0; Win64; x64) AppleWebKit/537.36 (KHTML, like Gecko) Chrome/81.0.4044.138 Safari/537.36","1.28","","3922","","<img src = 'img/A1-B1-L1-W0.jpg' width = '600'>","0","27","","","","",""
"","html-keyboard-response","60","319375","0.0-3.0-1.26","full","Female","37","United States of America","","C676009","WA","freqGain","Mozilla/5.0 (Windows NT 10.0; Win64; x64) AppleWebKit/537.36 (KHTML, like Gecko) Chrome/81.0.4044.138 Safari/537.36","1.28","","null","","Ouch, you were stung! You lost <b>-1 </b>point.","","27","null","-1","53","",""
"","html-button-response","61","321701","0.0-3.0-0.27","full","Female","37","United States of America","","C676009","WA","freqGain","Mozilla/5.0 (Windows NT 10.0; Win64; x64) AppleWebKit/537.36 (KHTML, like Gecko) Chrome/81.0.4044.138 Safari/537.36","1.28","","2323","","<img src = 'img/A0-B1-L1-W0.jpg' width = '600'>","1","28","","","","",""
"","html-keyboard-response","62","323704","0.0-3.0-1.27","full","Female","37","United States of America","","C676009","WA","freqGain","Mozilla/5.0 (Windows NT 10.0; Win64; x64) AppleWebKit/537.36 (KHTML, like Gecko) Chrome/81.0.4044.138 Safari/537.36","1.28","","null","","Whew, you avoided being stung! You earned <b>0 </b> points.","","28","null","0","53","",""
"","html-button-response","63","325701","0.0-3.0-0.28","full","Female","37","United States of America","","C676009","WA","freqGain","Mozilla/5.0 (Windows NT 10.0; Win64; x64) AppleWebKit/537.36 (KHTML, like Gecko) Chrome/81.0.4044.138 Safari/537.36","1.28","","1994","","<img src = 'img/A1-B0-L0-W0.jpg' width = '600'>","0","29","","","","",""
"","html-keyboard-response","64","327703","0.0-3.0-1.28","full","Female","37","United States of America","","C676009","WA","freqGain","Mozilla/5.0 (Windows NT 10.0; Win64; x64) AppleWebKit/537.36 (KHTML, like Gecko) Chrome/81.0.4044.138 Safari/537.36","1.28","","null","","Ouch, you were stung! You lost <b>-1 </b>point.","","29","null","-1","52","",""
"","html-button-response","65","330420","0.0-3.0-0.29","full","Female","37","United States of America","","C676009","WA","freqGain","Mozilla/5.0 (Windows NT 10.0; Win64; x64) AppleWebKit/537.36 (KHTML, like Gecko) Chrome/81.0.4044.138 Safari/537.36","1.28","","2715","","<img src = 'img/A1-B1-L0-W1.jpg' width = '600'>","0","30","","","","",""
"","html-keyboard-response","66","332421","0.0-3.0-1.29","full","Female","37","United States of America","","C676009","WA","freqGain","Mozilla/5.0 (Windows NT 10.0; Win64; x64) AppleWebKit/537.36 (KHTML, like Gecko) Chrome/81.0.4044.138 Safari/537.36","1.28","","null","","You successfully harvested honey! You earned <b>3 </b>points.","","30","null","3","55","",""
"","html-button-response","67","334659","0.0-3.0-0.30","full","Female","37","United States of America","","C676009","WA","freqGain","Mozilla/5.0 (Windows NT 10.0; Win64; x64) AppleWebKit/537.36 (KHTML, like Gecko) Chrome/81.0.4044.138 Safari/537.36","1.28","","2237","","<img src = 'img/A1-B1-L0-W0.jpg' width = '600'>","0","31","","","","",""
"","html-keyboard-response","68","336661","0.0-3.0-1.30","full","Female","37","United States of America","","C676009","WA","freqGain","Mozilla/5.0 (Windows NT 10.0; Win64; x64) AppleWebKit/537.36 (KHTML, like Gecko) Chrome/81.0.4044.138 Safari/537.36","1.28","","null","","Ouch, you were stung! You lost <b>-1 </b>point.","","31","null","-1","54","",""
"","html-button-response","69","338181","0.0-3.0-0.31","full","Female","37","United States of America","","C676009","WA","freqGain","Mozilla/5.0 (Windows NT 10.0; Win64; x64) AppleWebKit/537.36 (KHTML, like Gecko) Chrome/81.0.4044.138 Safari/537.36","1.28","","1516","","<img src = 'img/A0-B1-L0-W1.jpg' width = '600'>","1","32","","","","",""
"","html-keyboard-response","70","340183","0.0-3.0-1.31","full","Female","37","United States of America","","C676009","WA","freqGain","Mozilla/5.0 (Windows NT 10.0; Win64; x64) AppleWebKit/537.36 (KHTML, like Gecko) Chrome/81.0.4044.138 Safari/537.36","1.28","","null","","Whew, you avoided being stung! You earned <b>0 </b> points.","","32","null","0","54","",""
"","html-button-response","71","344363","0.0-3.0-0.32","full","Female","37","United States of America","","C676009","WA","freqGain","Mozilla/5.0 (Windows NT 10.0; Win64; x64) AppleWebKit/537.36 (KHTML, like Gecko) Chrome/81.0.4044.138 Safari/537.36","1.28","","4178","","<img src = 'img/A1-B1-L1-W0.jpg' width = '600'>","0","33","","","","",""
"","html-keyboard-response","72","346365","0.0-3.0-1.32","full","Female","37","United States of America","","C676009","WA","freqGain","Mozilla/5.0 (Windows NT 10.0; Win64; x64) AppleWebKit/537.36 (KHTML, like Gecko) Chrome/81.0.4044.138 Safari/537.36","1.28","","null","","Ouch, you were stung! You lost <b>-1 </b>point.","","33","null","-1","53","",""
"","html-button-response","73","347763","0.0-3.0-0.33","full","Female","37","United States of America","","C676009","WA","freqGain","Mozilla/5.0 (Windows NT 10.0; Win64; x64) AppleWebKit/537.36 (KHTML, like Gecko) Chrome/81.0.4044.138 Safari/537.36","1.28","","1395","","<img src = 'img/A0-B0-L1-W0.jpg' width = '600'>","1","34","","","","",""
"","html-keyboard-response","74","349765","0.0-3.0-1.33","full","Female","37","United States of America","","C676009","WA","freqGain","Mozilla/5.0 (Windows NT 10.0; Win64; x64) AppleWebKit/537.36 (KHTML, like Gecko) Chrome/81.0.4044.138 Safari/537.36","1.28","","null","","Whew, you avoided being stung! You earned <b>0 </b> points.","","34","null","0","53","",""
"","html-button-response","75","351288","0.0-3.0-0.34","full","Female","37","United States of America","","C676009","WA","freqGain","Mozilla/5.0 (Windows NT 10.0; Win64; x64) AppleWebKit/537.36 (KHTML, like Gecko) Chrome/81.0.4044.138 Safari/537.36","1.28","","1521","","<img src = 'img/A1-B0-L1-W1.jpg' width = '600'>","1","35","","","","",""
"","html-keyboard-response","76","353290","0.0-3.0-1.34","full","Female","37","United States of America","","C676009","WA","freqGain","Mozilla/5.0 (Windows NT 10.0; Win64; x64) AppleWebKit/537.36 (KHTML, like Gecko) Chrome/81.0.4044.138 Safari/537.36","1.28","","null","","Oops, you avoided a friendly hive. You earned <b>0 </b>points.","","35","null","0","53","",""
"","html-button-response","77","356947","0.0-3.0-0.35","full","Female","37","United States of America","","C676009","WA","freqGain","Mozilla/5.0 (Windows NT 10.0; Win64; x64) AppleWebKit/537.36 (KHTML, like Gecko) Chrome/81.0.4044.138 Safari/537.36","1.28","","3655","","<img src = 'img/A1-B0-L0-W0.jpg' width = '600'>","0","36","","","","",""
"","html-keyboard-response","78","358949","0.0-3.0-1.35","full","Female","37","United States of America","","C676009","WA","freqGain","Mozilla/5.0 (Windows NT 10.0; Win64; x64) AppleWebKit/537.36 (KHTML, like Gecko) Chrome/81.0.4044.138 Safari/537.36","1.28","","null","","Ouch, you were stung! You lost <b>-1 </b>point.","","36","null","-1","52","",""
"","html-button-response","79","361013","0.0-3.0-0.36","full","Female","37","United States of America","","C676009","WA","freqGain","Mozilla/5.0 (Windows NT 10.0; Win64; x64) AppleWebKit/537.36 (KHTML, like Gecko) Chrome/81.0.4044.138 Safari/537.36","1.28","","2063","","<img src = 'img/A0-B1-L0-W1.jpg' width = '600'>","1","37","","","","",""
"","html-keyboard-response","80","363015","0.0-3.0-1.36","full","Female","37","United States of America","","C676009","WA","freqGain","Mozilla/5.0 (Windows NT 10.0; Win64; x64) AppleWebKit/537.36 (KHTML, like Gecko) Chrome/81.0.4044.138 Safari/537.36","1.28","","null","","Whew, you avoided being stung! You earned <b>0 </b> points.","","37","null","0","52","",""
"","html-button-response","81","365395","0.0-3.0-0.37","full","Female","37","United States of America","","C676009","WA","freqGain","Mozilla/5.0 (Windows NT 10.0; Win64; x64) AppleWebKit/537.36 (KHTML, like Gecko) Chrome/81.0.4044.138 Safari/537.36","1.28","","2377","","<img src = 'img/A1-B1-L0-W1.jpg' width = '600'>","1","38","","","","",""
"","html-keyboard-response","82","367397","0.0-3.0-1.37","full","Female","37","United States of America","","C676009","WA","freqGain","Mozilla/5.0 (Windows NT 10.0; Win64; x64) AppleWebKit/537.36 (KHTML, like Gecko) Chrome/81.0.4044.138 Safari/537.36","1.28","","null","","Oops, you avoided a friendly hive. You earned <b>0 </b>points.","","38","null","0","52","",""
"","html-button-response","83","369307","0.0-3.0-0.38","full","Female","37","United States of America","","C676009","WA","freqGain","Mozilla/5.0 (Windows NT 10.0; Win64; x64) AppleWebKit/537.36 (KHTML, like Gecko) Chrome/81.0.4044.138 Safari/537.36","1.28","","1908","","<img src = 'img/A0-B1-L1-W0.jpg' width = '600'>","1","39","","","","",""
"","html-keyboard-response","84","371310","0.0-3.0-1.38","full","Female","37","United States of America","","C676009","WA","freqGain","Mozilla/5.0 (Windows NT 10.0; Win64; x64) AppleWebKit/537.36 (KHTML, like Gecko) Chrome/81.0.4044.138 Safari/537.36","1.28","","null","","Whew, you avoided being stung! You earned <b>0 </b> points.","","39","null","0","52","",""
"","html-button-response","85","375083","0.0-3.0-0.39","full","Female","37","United States of America","","C676009","WA","freqGain","Mozilla/5.0 (Windows NT 10.0; Win64; x64) AppleWebKit/537.36 (KHTML, like Gecko) Chrome/81.0.4044.138 Safari/537.36","1.28","","3772","","<img src = 'img/A1-B0-L1-W0.jpg' width = '600'>","0","40","","","","",""
"","html-keyboard-response","86","377086","0.0-3.0-1.39","full","Female","37","United States of America","","C676009","WA","freqGain","Mozilla/5.0 (Windows NT 10.0; Win64; x64) AppleWebKit/537.36 (KHTML, like Gecko) Chrome/81.0.4044.138 Safari/537.36","1.28","","null","","Ouch, you were stung! You lost <b>-1 </b>point.","","40","null","-1","51","",""
"","html-button-response","87","380071","0.0-3.0-0.40","full","Female","37","United States of America","","C676009","WA","freqGain","Mozilla/5.0 (Windows NT 10.0; Win64; x64) AppleWebKit/537.36 (KHTML, like Gecko) Chrome/81.0.4044.138 Safari/537.36","1.28","","2983","","<img src = 'img/A0-B0-L0-W1.jpg' width = '600'>","1","41","","","","",""
"","html-keyboard-response","88","382073","0.0-3.0-1.40","full","Female","37","United States of America","","C676009","WA","freqGain","Mozilla/5.0 (Windows NT 10.0; Win64; x64) AppleWebKit/537.36 (KHTML, like Gecko) Chrome/81.0.4044.138 Safari/537.36","1.28","","null","","Whew, you avoided being stung! You earned <b>0 </b> points.","","41","null","0","51","",""
"","html-button-response","89","384411","0.0-3.0-0.41","full","Female","37","United States of America","","C676009","WA","freqGain","Mozilla/5.0 (Windows NT 10.0; Win64; x64) AppleWebKit/537.36 (KHTML, like Gecko) Chrome/81.0.4044.138 Safari/537.36","1.28","","2337","","<img src = 'img/A0-B0-L1-W1.jpg' width = '600'>","1","42","","","","",""
"","html-keyboard-response","90","386414","0.0-3.0-1.41","full","Female","37","United States of America","","C676009","WA","freqGain","Mozilla/5.0 (Windows NT 10.0; Win64; x64) AppleWebKit/537.36 (KHTML, like Gecko) Chrome/81.0.4044.138 Safari/537.36","1.28","","null","","Whew, you avoided being stung! You earned <b>0 </b> points.","","42","null","0","51","",""
"","html-button-response","91","388179","0.0-3.0-0.42","full","Female","37","United States of America","","C676009","WA","freqGain","Mozilla/5.0 (Windows NT 10.0; Win64; x64) AppleWebKit/537.36 (KHTML, like Gecko) Chrome/81.0.4044.138 Safari/537.36","1.28","","1763","","<img src = 'img/A1-B1-L1-W1.jpg' width = '600'>","1","43","","","","",""
"","html-keyboard-response","92","390181","0.0-3.0-1.42","full","Female","37","United States of America","","C676009","WA","freqGain","Mozilla/5.0 (Windows NT 10.0; Win64; x64) AppleWebKit/537.36 (KHTML, like Gecko) Chrome/81.0.4044.138 Safari/537.36","1.28","","null","","Oops, you avoided a friendly hive. You earned <b>0 </b>points.","","43","null","0","51","",""
"","html-button-response","93","393115","0.0-3.0-0.43","full","Female","37","United States of America","","C676009","WA","freqGain","Mozilla/5.0 (Windows NT 10.0; Win64; x64) AppleWebKit/537.36 (KHTML, like Gecko) Chrome/81.0.4044.138 Safari/537.36","1.28","","2932","","<img src = 'img/A0-B1-L1-W1.jpg' width = '600'>","1","44","","","","",""
"","html-keyboard-response","94","395117","0.0-3.0-1.43","full","Female","37","United States of America","","C676009","WA","freqGain","Mozilla/5.0 (Windows NT 10.0; Win64; x64) AppleWebKit/537.36 (KHTML, like Gecko) Chrome/81.0.4044.138 Safari/537.36","1.28","","null","","Whew, you avoided being stung! You earned <b>0 </b> points.","","44","null","0","51","",""
"","html-button-response","95","397530","0.0-3.0-0.44","full","Female","37","United States of America","","C676009","WA","freqGain","Mozilla/5.0 (Windows NT 10.0; Win64; x64) AppleWebKit/537.36 (KHTML, like Gecko) Chrome/81.0.4044.138 Safari/537.36","1.28","","2410","","<img src = 'img/A0-B0-L0-W0.jpg' width = '600'>","1","45","","","","",""
"","html-keyboard-response","96","399532","0.0-3.0-1.44","full","Female","37","United States of America","","C676009","WA","freqGain","Mozilla/5.0 (Windows NT 10.0; Win64; x64) AppleWebKit/537.36 (KHTML, like Gecko) Chrome/81.0.4044.138 Safari/537.36","1.28","","null","","Whew, you avoided being stung! You earned <b>0 </b> points.","","45","null","0","51","",""
"","html-button-response","97","402485","0.0-3.0-0.45","full","Female","37","United States of America","","C676009","WA","freqGain","Mozilla/5.0 (Windows NT 10.0; Win64; x64) AppleWebKit/537.36 (KHTML, like Gecko) Chrome/81.0.4044.138 Safari/537.36","1.28","","2950","","<img src = 'img/A1-B0-L0-W1.jpg' width = '600'>","0","46","","","","",""
"","html-keyboard-response","98","404488","0.0-3.0-1.45","full","Female","37","United States of America","","C676009","WA","freqGain","Mozilla/5.0 (Windows NT 10.0; Win64; x64) AppleWebKit/537.36 (KHTML, like Gecko) Chrome/81.0.4044.138 Safari/537.36","1.28","","null","","You successfully harvested honey! You earned <b>3 </b>points.","","46","null","3","54","",""
"","html-button-response","99","406990","0.0-3.0-0.46","full","Female","37","United States of America","","C676009","WA","freqGain","Mozilla/5.0 (Windows NT 10.0; Win64; x64) AppleWebKit/537.36 (KHTML, like Gecko) Chrome/81.0.4044.138 Safari/537.36","1.28","","2500","","<img src = 'img/A1-B1-L0-W0.jpg' width = '600'>","1","47","","","","",""
"","html-keyboard-response","100","408992","0.0-3.0-1.46","full","Female","37","United States of America","","C676009","WA","freqGain","Mozilla/5.0 (Windows NT 10.0; Win64; x64) AppleWebKit/537.36 (KHTML, like Gecko) Chrome/81.0.4044.138 Safari/537.36","1.28","","null","","Whew, you avoided being stung! You earned <b>0 </b> points.","","47","null","0","54","",""
"","html-button-response","101","410631","0.0-3.0-0.47","full","Female","37","United States of America","","C676009","WA","freqGain","Mozilla/5.0 (Windows NT 10.0; Win64; x64) AppleWebKit/537.36 (KHTML, like Gecko) Chrome/81.0.4044.138 Safari/537.36","1.28","","1637","","<img src = 'img/A0-B1-L0-W0.jpg' width = '600'>","1","48","","","","",""
"","html-keyboard-response","102","412633","0.0-3.0-1.47","full","Female","37","United States of America","","C676009","WA","freqGain","Mozilla/5.0 (Windows NT 10.0; Win64; x64) AppleWebKit/537.36 (KHTML, like Gecko) Chrome/81.0.4044.138 Safari/537.36","1.28","","null","","Whew, you avoided being stung! You earned <b>0 </b> points.","","48","null","0","54","",""
"","html-button-response","103","416170","0.0-3.0-0.48","full","Female","37","United States of America","","C676009","WA","freqGain","Mozilla/5.0 (Windows NT 10.0; Win64; x64) AppleWebKit/537.36 (KHTML, like Gecko) Chrome/81.0.4044.138 Safari/537.36","1.28","","3534","","<img src = 'img/A1-B0-L0-W0.jpg' width = '600'>","1","49","","","","",""
"","html-keyboard-response","104","418172","0.0-3.0-1.48","full","Female","37","United States of America","","C676009","WA","freqGain","Mozilla/5.0 (Windows NT 10.0; Win64; x64) AppleWebKit/537.36 (KHTML, like Gecko) Chrome/81.0.4044.138 Safari/537.36","1.28","","null","","Whew, you avoided being stung! You earned <b>0 </b> points.","","49","null","0","54","",""
"","html-button-response","105","420929","0.0-3.0-0.49","full","Female","37","United States of America","","C676009","WA","freqGain","Mozilla/5.0 (Windows NT 10.0; Win64; x64) AppleWebKit/537.36 (KHTML, like Gecko) Chrome/81.0.4044.138 Safari/537.36","1.28","","2754","","<img src = 'img/A0-B0-L0-W1.jpg' width = '600'>","1","50","","","","",""
"","html-keyboard-response","106","422930","0.0-3.0-1.49","full","Female","37","United States of America","","C676009","WA","freqGain","Mozilla/5.0 (Windows NT 10.0; Win64; x64) AppleWebKit/537.36 (KHTML, like Gecko) Chrome/81.0.4044.138 Safari/537.36","1.28","","null","","Whew, you avoided being stung! You earned <b>0 </b> points.","","50","null","0","54","",""
"","html-button-response","107","425274","0.0-3.0-0.50","full","Female","37","United States of America","","C676009","WA","freqGain","Mozilla/5.0 (Windows NT 10.0; Win64; x64) AppleWebKit/537.36 (KHTML, like Gecko) Chrome/81.0.4044.138 Safari/537.36","1.28","","2342","","<img src = 'img/A1-B1-L0-W1.jpg' width = '600'>","1","51","","","","",""
"","html-keyboard-response","108","427277","0.0-3.0-1.50","full","Female","37","United States of America","","C676009","WA","freqGain","Mozilla/5.0 (Windows NT 10.0; Win64; x64) AppleWebKit/537.36 (KHTML, like Gecko) Chrome/81.0.4044.138 Safari/537.36","1.28","","null","","Oops, you avoided a friendly hive. You earned <b>0 </b>points.","","51","null","0","54","",""
"","html-button-response","109","431056","0.0-3.0-0.51","full","Female","37","United States of America","","C676009","WA","freqGain","Mozilla/5.0 (Windows NT 10.0; Win64; x64) AppleWebKit/537.36 (KHTML, like Gecko) Chrome/81.0.4044.138 Safari/537.36","1.28","","3778","","<img src = 'img/A0-B1-L1-W0.jpg' width = '600'>","1","52","","","","",""
"","html-keyboard-response","110","433058","0.0-3.0-1.51","full","Female","37","United States of America","","C676009","WA","freqGain","Mozilla/5.0 (Windows NT 10.0; Win64; x64) AppleWebKit/537.36 (KHTML, like Gecko) Chrome/81.0.4044.138 Safari/537.36","1.28","","null","","Whew, you avoided being stung! You earned <b>0 </b> points.","","52","null","0","54","",""
"","html-button-response","111","434725","0.0-3.0-0.52","full","Female","37","United States of America","","C676009","WA","freqGain","Mozilla/5.0 (Windows NT 10.0; Win64; x64) AppleWebKit/537.36 (KHTML, like Gecko) Chrome/81.0.4044.138 Safari/537.36","1.28","","1666","","<img src = 'img/A0-B0-L1-W1.jpg' width = '600'>","1","53","","","","",""
"","html-keyboard-response","112","436728","0.0-3.0-1.52","full","Female","37","United States of America","","C676009","WA","freqGain","Mozilla/5.0 (Windows NT 10.0; Win64; x64) AppleWebKit/537.36 (KHTML, like Gecko) Chrome/81.0.4044.138 Safari/537.36","1.28","","null","","Whew, you avoided being stung! You earned <b>0 </b> points.","","53","null","0","54","",""
"","html-button-response","113","439067","0.0-3.0-0.53","full","Female","37","United States of America","","C676009","WA","freqGain","Mozilla/5.0 (Windows NT 10.0; Win64; x64) AppleWebKit/537.36 (KHTML, like Gecko) Chrome/81.0.4044.138 Safari/537.36","1.28","","2337","","<img src = 'img/A0-B1-L1-W1.jpg' width = '600'>","1","54","","","","",""
"","html-keyboard-response","114","441069","0.0-3.0-1.53","full","Female","37","United States of America","","C676009","WA","freqGain","Mozilla/5.0 (Windows NT 10.0; Win64; x64) AppleWebKit/537.36 (KHTML, like Gecko) Chrome/81.0.4044.138 Safari/537.36","1.28","","null","","Whew, you avoided being stung! You earned <b>0 </b> points.","","54","null","0","54","",""
"","html-button-response","115","444051","0.0-3.0-0.54","full","Female","37","United States of America","","C676009","WA","freqGain","Mozilla/5.0 (Windows NT 10.0; Win64; x64) AppleWebKit/537.36 (KHTML, like Gecko) Chrome/81.0.4044.138 Safari/537.36","1.28","","2980","","<img src = 'img/A1-B1-L0-W0.jpg' width = '600'>","0","55","","","","",""
"","html-keyboard-response","116","446052","0.0-3.0-1.54","full","Female","37","United States of America","","C676009","WA","freqGain","Mozilla/5.0 (Windows NT 10.0; Win64; x64) AppleWebKit/537.36 (KHTML, like Gecko) Chrome/81.0.4044.138 Safari/537.36","1.28","","null","","Ouch, you were stung! You lost <b>-1 </b>point.","","55","null","-1","53","",""
"","html-button-response","117","449664","0.0-3.0-0.55","full","Female","37","United States of America","","C676009","WA","freqGain","Mozilla/5.0 (Windows NT 10.0; Win64; x64) AppleWebKit/537.36 (KHTML, like Gecko) Chrome/81.0.4044.138 Safari/537.36","1.28","","3609","","<img src = 'img/A1-B1-L1-W1.jpg' width = '600'>","0","56","","","","",""
"","html-keyboard-response","118","451666","0.0-3.0-1.55","full","Female","37","United States of America","","C676009","WA","freqGain","Mozilla/5.0 (Windows NT 10.0; Win64; x64) AppleWebKit/537.36 (KHTML, like Gecko) Chrome/81.0.4044.138 Safari/537.36","1.28","","null","","You successfully harvested honey! You earned <b>3 </b>points.","","56","null","3","56","",""
"","html-button-response","119","454280","0.0-3.0-0.56","full","Female","37","United States of America","","C676009","WA","freqGain","Mozilla/5.0 (Windows NT 10.0; Win64; x64) AppleWebKit/537.36 (KHTML, like Gecko) Chrome/81.0.4044.138 Safari/537.36","1.28","","2611","","<img src = 'img/A0-B0-L0-W0.jpg' width = '600'>","1","57","","","","",""
"","html-keyboard-response","120","456282","0.0-3.0-1.56","full","Female","37","United States of America","","C676009","WA","freqGain","Mozilla/5.0 (Windows NT 10.0; Win64; x64) AppleWebKit/537.36 (KHTML, like Gecko) Chrome/81.0.4044.138 Safari/537.36","1.28","","null","","Whew, you avoided being stung! You earned <b>0 </b> points.","","57","null","0","56","",""
"","html-button-response","121","458313","0.0-3.0-0.57","full","Female","37","United States of America","","C676009","WA","freqGain","Mozilla/5.0 (Windows NT 10.0; Win64; x64) AppleWebKit/537.36 (KHTML, like Gecko) Chrome/81.0.4044.138 Safari/537.36","1.28","","2030","","<img src = 'img/A0-B0-L1-W0.jpg' width = '600'>","1","58","","","","",""
"","html-keyboard-response","122","460315","0.0-3.0-1.57","full","Female","37","United States of America","","C676009","WA","freqGain","Mozilla/5.0 (Windows NT 10.0; Win64; x64) AppleWebKit/537.36 (KHTML, like Gecko) Chrome/81.0.4044.138 Safari/537.36","1.28","","null","","Whew, you avoided being stung! You earned <b>0 </b> points.","","58","null","0","56","",""
"","html-button-response","123","463290","0.0-3.0-0.58","full","Female","37","United States of America","","C676009","WA","freqGain","Mozilla/5.0 (Windows NT 10.0; Win64; x64) AppleWebKit/537.36 (KHTML, like Gecko) Chrome/81.0.4044.138 Safari/537.36","1.28","","2973","","<img src = 'img/A1-B1-L1-W0.jpg' width = '600'>","1","59","","","","",""
"","html-keyboard-response","124","465291","0.0-3.0-1.58","full","Female","37","United States of America","","C676009","WA","freqGain","Mozilla/5.0 (Windows NT 10.0; Win64; x64) AppleWebKit/537.36 (KHTML, like Gecko) Chrome/81.0.4044.138 Safari/537.36","1.28","","null","","Whew, you avoided being stung! You earned <b>0 </b> points.","","59","null","0","56","",""
"","html-button-response","125","468879","0.0-3.0-0.59","full","Female","37","United States of America","","C676009","WA","freqGain","Mozilla/5.0 (Windows NT 10.0; Win64; x64) AppleWebKit/537.36 (KHTML, like Gecko) Chrome/81.0.4044.138 Safari/537.36","1.28","","3586","","<img src = 'img/A1-B0-L1-W1.jpg' width = '600'>","0","60","","","","",""
"","html-keyboard-response","126","470882","0.0-3.0-1.59","full","Female","37","United States of America","","C676009","WA","freqGain","Mozilla/5.0 (Windows NT 10.0; Win64; x64) AppleWebKit/537.36 (KHTML, like Gecko) Chrome/81.0.4044.138 Safari/537.36","1.28","","null","","You successfully harvested honey! You earned <b>3 </b>points.","","60","null","3","59","",""
"","html-button-response","127","475465","0.0-3.0-0.60","full","Female","37","United States of America","","C676009","WA","freqGain","Mozilla/5.0 (Windows NT 10.0; Win64; x64) AppleWebKit/537.36 (KHTML, like Gecko) Chrome/81.0.4044.138 Safari/537.36","1.28","","4581","","<img src = 'img/A1-B0-L0-W1.jpg' width = '600'>","1","61","","","","",""
"","html-keyboard-response","128","477467","0.0-3.0-1.60","full","Female","37","United States of America","","C676009","WA","freqGain","Mozilla/5.0 (Windows NT 10.0; Win64; x64) AppleWebKit/537.36 (KHTML, like Gecko) Chrome/81.0.4044.138 Safari/537.36","1.28","","null","","Oops, you avoided a friendly hive. You earned <b>0 </b>points.","","61","null","0","59","",""
"","html-button-response","129","480055","0.0-3.0-0.61","full","Female","37","United States of America","","C676009","WA","freqGain","Mozilla/5.0 (Windows NT 10.0; Win64; x64) AppleWebKit/537.36 (KHTML, like Gecko) Chrome/81.0.4044.138 Safari/537.36","1.28","","2587","","<img src = 'img/A0-B1-L0-W1.jpg' width = '600'>","1","62","","","","",""
"","html-keyboard-response","130","482057","0.0-3.0-1.61","full","Female","37","United States of America","","C676009","WA","freqGain","Mozilla/5.0 (Windows NT 10.0; Win64; x64) AppleWebKit/537.36 (KHTML, like Gecko) Chrome/81.0.4044.138 Safari/537.36","1.28","","null","","Whew, you avoided being stung! You earned <b>0 </b> points.","","62","null","0","59","",""
"","html-button-response","131","486527","0.0-3.0-0.62","full","Female","37","United States of America","","C676009","WA","freqGain","Mozilla/5.0 (Windows NT 10.0; Win64; x64) AppleWebKit/537.36 (KHTML, like Gecko) Chrome/81.0.4044.138 Safari/537.36","1.28","","4468","","<img src = 'img/A1-B0-L1-W0.jpg' width = '600'>","0","63","","","","",""
"","html-keyboard-response","132","488532","0.0-3.0-1.62","full","Female","37","United States of America","","C676009","WA","freqGain","Mozilla/5.0 (Windows NT 10.0; Win64; x64) AppleWebKit/537.36 (KHTML, like Gecko) Chrome/81.0.4044.138 Safari/537.36","1.28","","null","","Ouch, you were stung! You lost <b>-1 </b>point.","","63","null","-1","58","",""
"","html-button-response","133","490408","0.0-3.0-0.63","full","Female","37","United States of America","","C676009","WA","freqGain","Mozilla/5.0 (Windows NT 10.0; Win64; x64) AppleWebKit/537.36 (KHTML, like Gecko) Chrome/81.0.4044.138 Safari/537.36","1.28","","1872","","<img src = 'img/A0-B1-L0-W0.jpg' width = '600'>","1","64","","","","",""
"","html-keyboard-response","134","492411","0.0-3.0-1.63","full","Female","37","United States of America","","C676009","WA","freqGain","Mozilla/5.0 (Windows NT 10.0; Win64; x64) AppleWebKit/537.36 (KHTML, like Gecko) Chrome/81.0.4044.138 Safari/537.36","1.28","","null","","Whew, you avoided being stung! You earned <b>0 </b> points.","","64","null","0","58","",""
"","html-button-response","135","493968","0.0-3.0-0.64","full","Female","37","United States of America","","C676009","WA","freqGain","Mozilla/5.0 (Windows NT 10.0; Win64; x64) AppleWebKit/537.36 (KHTML, like Gecko) Chrome/81.0.4044.138 Safari/537.36","1.28","","1556","","<img src = 'img/A1-B1-L0-W0.jpg' width = '600'>","1","65","","","","",""
"","html-keyboard-response","136","495971","0.0-3.0-1.64","full","Female","37","United States of America","","C676009","WA","freqGain","Mozilla/5.0 (Windows NT 10.0; Win64; x64) AppleWebKit/537.36 (KHTML, like Gecko) Chrome/81.0.4044.138 Safari/537.36","1.28","","null","","Whew, you avoided being stung! You earned <b>0 </b> points.","","65","null","0","58","",""
"","html-button-response","137","497469","0.0-3.0-0.65","full","Female","37","United States of America","","C676009","WA","freqGain","Mozilla/5.0 (Windows NT 10.0; Win64; x64) AppleWebKit/537.36 (KHTML, like Gecko) Chrome/81.0.4044.138 Safari/537.36","1.28","","1496","","<img src = 'img/A0-B1-L0-W0.jpg' width = '600'>","1","66","","","","",""
"","html-keyboard-response","138","499470","0.0-3.0-1.65","full","Female","37","United States of America","","C676009","WA","freqGain","Mozilla/5.0 (Windows NT 10.0; Win64; x64) AppleWebKit/537.36 (KHTML, like Gecko) Chrome/81.0.4044.138 Safari/537.36","1.28","","null","","Whew, you avoided being stung! You earned <b>0 </b> points.","","66","null","0","58","",""
"","html-button-response","139","502299","0.0-3.0-0.66","full","Female","37","United States of America","","C676009","WA","freqGain","Mozilla/5.0 (Windows NT 10.0; Win64; x64) AppleWebKit/537.36 (KHTML, like Gecko) Chrome/81.0.4044.138 Safari/537.36","1.28","","2828","","<img src = 'img/A1-B0-L1-W1.jpg' width = '600'>","0","67","","","","",""
"","html-keyboard-response","140","504302","0.0-3.0-1.66","full","Female","37","United States of America","","C676009","WA","freqGain","Mozilla/5.0 (Windows NT 10.0; Win64; x64) AppleWebKit/537.36 (KHTML, like Gecko) Chrome/81.0.4044.138 Safari/537.36","1.28","","null","","You successfully harvested honey! You earned <b>3 </b>points.","","67","null","3","61","",""
"","html-button-response","141","507185","0.0-3.0-0.67","full","Female","37","United States of America","","C676009","WA","freqGain","Mozilla/5.0 (Windows NT 10.0; Win64; x64) AppleWebKit/537.36 (KHTML, like Gecko) Chrome/81.0.4044.138 Safari/537.36","1.28","","2882","","<img src = 'img/A0-B0-L0-W1.jpg' width = '600'>","1","68","","","","",""
"","html-keyboard-response","142","509187","0.0-3.0-1.67","full","Female","37","United States of America","","C676009","WA","freqGain","Mozilla/5.0 (Windows NT 10.0; Win64; x64) AppleWebKit/537.36 (KHTML, like Gecko) Chrome/81.0.4044.138 Safari/537.36","1.28","","null","","Whew, you avoided being stung! You earned <b>0 </b> points.","","68","null","0","61","",""
"","html-button-response","143","513864","0.0-3.0-0.68","full","Female","37","United States of America","","C676009","WA","freqGain","Mozilla/5.0 (Windows NT 10.0; Win64; x64) AppleWebKit/537.36 (KHTML, like Gecko) Chrome/81.0.4044.138 Safari/537.36","1.28","","4675","","<img src = 'img/A1-B0-L0-W0.jpg' width = '600'>","0","69","","","","",""
"","html-keyboard-response","144","515866","0.0-3.0-1.68","full","Female","37","United States of America","","C676009","WA","freqGain","Mozilla/5.0 (Windows NT 10.0; Win64; x64) AppleWebKit/537.36 (KHTML, like Gecko) Chrome/81.0.4044.138 Safari/537.36","1.28","","null","","Ouch, you were stung! You lost <b>-1 </b>point.","","69","null","-1","60","",""
"","html-button-response","145","519658","0.0-3.0-0.69","full","Female","37","United States of America","","C676009","WA","freqGain","Mozilla/5.0 (Windows NT 10.0; Win64; x64) AppleWebKit/537.36 (KHTML, like Gecko) Chrome/81.0.4044.138 Safari/537.36","1.28","","3790","","<img src = 'img/A1-B1-L1-W1.jpg' width = '600'>","0","70","","","","",""
"","html-keyboard-response","146","521659","0.0-3.0-1.69","full","Female","37","United States of America","","C676009","WA","freqGain","Mozilla/5.0 (Windows NT 10.0; Win64; x64) AppleWebKit/537.36 (KHTML, like Gecko) Chrome/81.0.4044.138 Safari/537.36","1.28","","null","","You successfully harvested honey! You earned <b>3 </b>points.","","70","null","3","63","",""
"","html-button-response","147","523080","0.0-3.0-0.70","full","Female","37","United States of America","","C676009","WA","freqGain","Mozilla/5.0 (Windows NT 10.0; Win64; x64) AppleWebKit/537.36 (KHTML, like Gecko) Chrome/81.0.4044.138 Safari/537.36","1.28","","1418","","<img src = 'img/A0-B0-L1-W0.jpg' width = '600'>","1","71","","","","",""
"","html-keyboard-response","148","525082","0.0-3.0-1.70","full","Female","37","United States of America","","C676009","WA","freqGain","Mozilla/5.0 (Windows NT 10.0; Win64; x64) AppleWebKit/537.36 (KHTML, like Gecko) Chrome/81.0.4044.138 Safari/537.36","1.28","","null","","Whew, you avoided being stung! You earned <b>0 </b> points.","","71","null","0","63","",""
"","html-button-response","149","527896","0.0-3.0-0.71","full","Female","37","United States of America","","C676009","WA","freqGain","Mozilla/5.0 (Windows NT 10.0; Win64; x64) AppleWebKit/537.36 (KHTML, like Gecko) Chrome/81.0.4044.138 Safari/537.36","1.28","","2812","","<img src = 'img/A0-B0-L1-W1.jpg' width = '600'>","1","72","","","","",""
"","html-keyboard-response","150","529899","0.0-3.0-1.71","full","Female","37","United States of America","","C676009","WA","freqGain","Mozilla/5.0 (Windows NT 10.0; Win64; x64) AppleWebKit/537.36 (KHTML, like Gecko) Chrome/81.0.4044.138 Safari/537.36","1.28","","null","","Whew, you avoided being stung! You earned <b>0 </b> points.","","72","null","0","63","",""
"","html-button-response","151","532273","0.0-3.0-0.72","full","Female","37","United States of America","","C676009","WA","freqGain","Mozilla/5.0 (Windows NT 10.0; Win64; x64) AppleWebKit/537.36 (KHTML, like Gecko) Chrome/81.0.4044.138 Safari/537.36","1.28","","2372","","<img src = 'img/A1-B1-L1-W0.jpg' width = '600'>","1","73","","","","",""
"","html-keyboard-response","152","534275","0.0-3.0-1.72","full","Female","37","United States of America","","C676009","WA","freqGain","Mozilla/5.0 (Windows NT 10.0; Win64; x64) AppleWebKit/537.36 (KHTML, like Gecko) Chrome/81.0.4044.138 Safari/537.36","1.28","","null","","Whew, you avoided being stung! You earned <b>0 </b> points.","","73","null","0","63","",""
"","html-button-response","153","536553","0.0-3.0-0.73","full","Female","37","United States of America","","C676009","WA","freqGain","Mozilla/5.0 (Windows NT 10.0; Win64; x64) AppleWebKit/537.36 (KHTML, like Gecko) Chrome/81.0.4044.138 Safari/537.36","1.28","","2276","","<img src = 'img/A0-B1-L1-W0.jpg' width = '600'>","1","74","","","","",""
"","html-keyboard-response","154","538555","0.0-3.0-1.73","full","Female","37","United States of America","","C676009","WA","freqGain","Mozilla/5.0 (Windows NT 10.0; Win64; x64) AppleWebKit/537.36 (KHTML, like Gecko) Chrome/81.0.4044.138 Safari/537.36","1.28","","null","","Whew, you avoided being stung! You earned <b>0 </b> points.","","74","null","0","63","",""
"","html-button-response","155","544071","0.0-3.0-0.74","full","Female","37","United States of America","","C676009","WA","freqGain","Mozilla/5.0 (Windows NT 10.0; Win64; x64) AppleWebKit/537.36 (KHTML, like Gecko) Chrome/81.0.4044.138 Safari/537.36","1.28","","5514","","<img src = 'img/A1-B1-L0-W1.jpg' width = '600'>","0","75","","","","",""
"","html-keyboard-response","156","546073","0.0-3.0-1.74","full","Female","37","United States of America","","C676009","WA","freqGain","Mozilla/5.0 (Windows NT 10.0; Win64; x64) AppleWebKit/537.36 (KHTML, like Gecko) Chrome/81.0.4044.138 Safari/537.36","1.28","","null","","You successfully harvested honey! You earned <b>3 </b>points.","","75","null","3","66","",""
"","html-button-response","157","548384","0.0-3.0-0.75","full","Female","37","United States of America","","C676009","WA","freqGain","Mozilla/5.0 (Windows NT 10.0; Win64; x64) AppleWebKit/537.36 (KHTML, like Gecko) Chrome/81.0.4044.138 Safari/537.36","1.28","","2308","","<img src = 'img/A0-B1-L0-W1.jpg' width = '600'>","1","76","","","","",""
"","html-keyboard-response","158","550385","0.0-3.0-1.75","full","Female","37","United States of America","","C676009","WA","freqGain","Mozilla/5.0 (Windows NT 10.0; Win64; x64) AppleWebKit/537.36 (KHTML, like Gecko) Chrome/81.0.4044.138 Safari/537.36","1.28","","null","","Whew, you avoided being stung! You earned <b>0 </b> points.","","76","null","0","66","",""
"","html-button-response","159","553703","0.0-3.0-0.76","full","Female","37","United States of America","","C676009","WA","freqGain","Mozilla/5.0 (Windows NT 10.0; Win64; x64) AppleWebKit/537.36 (KHTML, like Gecko) Chrome/81.0.4044.138 Safari/537.36","1.28","","3316","","<img src = 'img/A1-B0-L0-W1.jpg' width = '600'>","0","77","","","","",""
"","html-keyboard-response","160","555705","0.0-3.0-1.76","full","Female","37","United States of America","","C676009","WA","freqGain","Mozilla/5.0 (Windows NT 10.0; Win64; x64) AppleWebKit/537.36 (KHTML, like Gecko) Chrome/81.0.4044.138 Safari/537.36","1.28","","null","","You successfully harvested honey! You earned <b>3 </b>points.","","77","null","3","69","",""
"","html-button-response","161","557247","0.0-3.0-0.77","full","Female","37","United States of America","","C676009","WA","freqGain","Mozilla/5.0 (Windows NT 10.0; Win64; x64) AppleWebKit/537.36 (KHTML, like Gecko) Chrome/81.0.4044.138 Safari/537.36","1.28","","1539","","<img src = 'img/A0-B1-L1-W1.jpg' width = '600'>","1","78","","","","",""
"","html-keyboard-response","162","559248","0.0-3.0-1.77","full","Female","37","United States of America","","C676009","WA","freqGain","Mozilla/5.0 (Windows NT 10.0; Win64; x64) AppleWebKit/537.36 (KHTML, like Gecko) Chrome/81.0.4044.138 Safari/537.36","1.28","","null","","Whew, you avoided being stung! You earned <b>0 </b> points.","","78","null","0","69","",""
"","html-button-response","163","561577","0.0-3.0-0.78","full","Female","37","United States of America","","C676009","WA","freqGain","Mozilla/5.0 (Windows NT 10.0; Win64; x64) AppleWebKit/537.36 (KHTML, like Gecko) Chrome/81.0.4044.138 Safari/537.36","1.28","","2327","","<img src = 'img/A0-B0-L0-W0.jpg' width = '600'>","1","79","","","","",""
"","html-keyboard-response","164","563578","0.0-3.0-1.78","full","Female","37","United States of America","","C676009","WA","freqGain","Mozilla/5.0 (Windows NT 10.0; Win64; x64) AppleWebKit/537.36 (KHTML, like Gecko) Chrome/81.0.4044.138 Safari/537.36","1.28","","null","","Whew, you avoided being stung! You earned <b>0 </b> points.","","79","null","0","69","",""
"","html-button-response","165","565752","0.0-3.0-0.79","full","Female","37","United States of America","","C676009","WA","freqGain","Mozilla/5.0 (Windows NT 10.0; Win64; x64) AppleWebKit/537.36 (KHTML, like Gecko) Chrome/81.0.4044.138 Safari/537.36","1.28","","2172","","<img src = 'img/A1-B0-L1-W0.jpg' width = '600'>","0","80","","","","",""
"","html-keyboard-response","166","567754","0.0-3.0-1.79","full","Female","37","United States of America","","C676009","WA","freqGain","Mozilla/5.0 (Windows NT 10.0; Win64; x64) AppleWebKit/537.36 (KHTML, like Gecko) Chrome/81.0.4044.138 Safari/537.36","1.28","","null","","Ouch, you were stung! You lost <b>-1 </b>point.","","80","null","-1","68","",""
"","html-button-response","167","569431","0.0-3.0-0.80","full","Female","37","United States of America","","C676009","WA","freqGain","Mozilla/5.0 (Windows NT 10.0; Win64; x64) AppleWebKit/537.36 (KHTML, like Gecko) Chrome/81.0.4044.138 Safari/537.36","1.28","","1674","","<img src = 'img/A1-B1-L0-W0.jpg' width = '600'>","1","81","","","","",""
"","html-keyboard-response","168","571432","0.0-3.0-1.80","full","Female","37","United States of America","","C676009","WA","freqGain","Mozilla/5.0 (Windows NT 10.0; Win64; x64) AppleWebKit/537.36 (KHTML, like Gecko) Chrome/81.0.4044.138 Safari/537.36","1.28","","null","","Whew, you avoided being stung! You earned <b>0 </b> points.","","81","null","0","68","",""
"","html-button-response","169","574280","0.0-3.0-0.81","full","Female","37","United States of America","","C676009","WA","freqGain","Mozilla/5.0 (Windows NT 10.0; Win64; x64) AppleWebKit/537.36 (KHTML, like Gecko) Chrome/81.0.4044.138 Safari/537.36","1.28","","2846","","<img src = 'img/A1-B0-L1-W1.jpg' width = '600'>","0","82","","","","",""
"","html-keyboard-response","170","576283","0.0-3.0-1.81","full","Female","37","United States of America","","C676009","WA","freqGain","Mozilla/5.0 (Windows NT 10.0; Win64; x64) AppleWebKit/537.36 (KHTML, like Gecko) Chrome/81.0.4044.138 Safari/537.36","1.28","","null","","You successfully harvested honey! You earned <b>3 </b>points.","","82","null","3","71","",""
"","html-button-response","171","578550","0.0-3.0-0.82","full","Female","37","United States of America","","C676009","WA","freqGain","Mozilla/5.0 (Windows NT 10.0; Win64; x64) AppleWebKit/537.36 (KHTML, like Gecko) Chrome/81.0.4044.138 Safari/537.36","1.28","","2265","","<img src = 'img/A0-B0-L0-W0.jpg' width = '600'>","1","83","","","","",""
"","html-keyboard-response","172","580552","0.0-3.0-1.82","full","Female","37","United States of America","","C676009","WA","freqGain","Mozilla/5.0 (Windows NT 10.0; Win64; x64) AppleWebKit/537.36 (KHTML, like Gecko) Chrome/81.0.4044.138 Safari/537.36","1.28","","null","","Whew, you avoided being stung! You earned <b>0 </b> points.","","83","null","0","71","",""
"","html-button-response","173","582201","0.0-3.0-0.83","full","Female","37","United States of America","","C676009","WA","freqGain","Mozilla/5.0 (Windows NT 10.0; Win64; x64) AppleWebKit/537.36 (KHTML, like Gecko) Chrome/81.0.4044.138 Safari/537.36","1.28","","1647","","<img src = 'img/A0-B0-L1-W0.jpg' width = '600'>","1","84","","","","",""
"","html-keyboard-response","174","584203","0.0-3.0-1.83","full","Female","37","United States of America","","C676009","WA","freqGain","Mozilla/5.0 (Windows NT 10.0; Win64; x64) AppleWebKit/537.36 (KHTML, like Gecko) Chrome/81.0.4044.138 Safari/537.36","1.28","","null","","Whew, you avoided being stung! You earned <b>0 </b> points.","","84","null","0","71","",""
"","html-button-response","175","588567","0.0-3.0-0.84","full","Female","37","United States of America","","C676009","WA","freqGain","Mozilla/5.0 (Windows NT 10.0; Win64; x64) AppleWebKit/537.36 (KHTML, like Gecko) Chrome/81.0.4044.138 Safari/537.36","1.28","","4362","","<img src = 'img/A1-B0-L1-W0.jpg' width = '600'>","1","85","","","","",""
"","html-keyboard-response","176","590570","0.0-3.0-1.84","full","Female","37","United States of America","","C676009","WA","freqGain","Mozilla/5.0 (Windows NT 10.0; Win64; x64) AppleWebKit/537.36 (KHTML, like Gecko) Chrome/81.0.4044.138 Safari/537.36","1.28","","null","","Whew, you avoided being stung! You earned <b>0 </b> points.","","85","null","0","71","",""
"","html-button-response","177","594637","0.0-3.0-0.85","full","Female","37","United States of America","","C676009","WA","freqGain","Mozilla/5.0 (Windows NT 10.0; Win64; x64) AppleWebKit/537.36 (KHTML, like Gecko) Chrome/81.0.4044.138 Safari/537.36","1.28","","4066","","<img src = 'img/A1-B1-L0-W1.jpg' width = '600'>","0","86","","","","",""
"","html-keyboard-response","178","596639","0.0-3.0-1.85","full","Female","37","United States of America","","C676009","WA","freqGain","Mozilla/5.0 (Windows NT 10.0; Win64; x64) AppleWebKit/537.36 (KHTML, like Gecko) Chrome/81.0.4044.138 Safari/537.36","1.28","","null","","You successfully harvested honey! You earned <b>3 </b>points.","","86","null","3","74","",""
"","html-button-response","179","598758","0.0-3.0-0.86","full","Female","37","United States of America","","C676009","WA","freqGain","Mozilla/5.0 (Windows NT 10.0; Win64; x64) AppleWebKit/537.36 (KHTML, like Gecko) Chrome/81.0.4044.138 Safari/537.36","1.28","","2117","","<img src = 'img/A0-B1-L1-W0.jpg' width = '600'>","1","87","","","","",""
"","html-keyboard-response","180","600759","0.0-3.0-1.86","full","Female","37","United States of America","","C676009","WA","freqGain","Mozilla/5.0 (Windows NT 10.0; Win64; x64) AppleWebKit/537.36 (KHTML, like Gecko) Chrome/81.0.4044.138 Safari/537.36","1.28","","null","","Whew, you avoided being stung! You earned <b>0 </b> points.","","87","null","0","74","",""
"","html-button-response","181","602990","0.0-3.0-0.87","full","Female","37","United States of America","","C676009","WA","freqGain","Mozilla/5.0 (Windows NT 10.0; Win64; x64) AppleWebKit/537.36 (KHTML, like Gecko) Chrome/81.0.4044.138 Safari/537.36","1.28","","2229","","<img src = 'img/A1-B0-L0-W0.jpg' width = '600'>","1","88","","","","",""
"","html-keyboard-response","182","604992","0.0-3.0-1.87","full","Female","37","United States of America","","C676009","WA","freqGain","Mozilla/5.0 (Windows NT 10.0; Win64; x64) AppleWebKit/537.36 (KHTML, like Gecko) Chrome/81.0.4044.138 Safari/537.36","1.28","","null","","Whew, you avoided being stung! You earned <b>0 </b> points.","","88","null","0","74","",""
"","html-button-response","183","607437","0.0-3.0-0.88","full","Female","37","United States of America","","C676009","WA","freqGain","Mozilla/5.0 (Windows NT 10.0; Win64; x64) AppleWebKit/537.36 (KHTML, like Gecko) Chrome/81.0.4044.138 Safari/537.36","1.28","","2444","","<img src = 'img/A1-B0-L0-W1.jpg' width = '600'>","0","89","","","","",""
"","html-keyboard-response","184","609440","0.0-3.0-1.88","full","Female","37","United States of America","","C676009","WA","freqGain","Mozilla/5.0 (Windows NT 10.0; Win64; x64) AppleWebKit/537.36 (KHTML, like Gecko) Chrome/81.0.4044.138 Safari/537.36","1.28","","null","","You successfully harvested honey! You earned <b>3 </b>points.","","89","null","3","77","",""
"","html-button-response","185","613197","0.0-3.0-0.89","full","Female","37","United States of America","","C676009","WA","freqGain","Mozilla/5.0 (Windows NT 10.0; Win64; x64) AppleWebKit/537.36 (KHTML, like Gecko) Chrome/81.0.4044.138 Safari/537.36","1.28","","3756","","<img src = 'img/A1-B1-L1-W0.jpg' width = '600'>","1","90","","","","",""
"","html-keyboard-response","186","615199","0.0-3.0-1.89","full","Female","37","United States of America","","C676009","WA","freqGain","Mozilla/5.0 (Windows NT 10.0; Win64; x64) AppleWebKit/537.36 (KHTML, like Gecko) Chrome/81.0.4044.138 Safari/537.36","1.28","","null","","Whew, you avoided being stung! You earned <b>0 </b> points.","","90","null","0","77","",""
"","html-button-response","187","617893","0.0-3.0-0.90","full","Female","37","United States of America","","C676009","WA","freqGain","Mozilla/5.0 (Windows NT 10.0; Win64; x64) AppleWebKit/537.36 (KHTML, like Gecko) Chrome/81.0.4044.138 Safari/537.36","1.28","","2692","","<img src = 'img/A0-B0-L0-W1.jpg' width = '600'>","1","91","","","","",""
"","html-keyboard-response","188","619896","0.0-3.0-1.90","full","Female","37","United States of America","","C676009","WA","freqGain","Mozilla/5.0 (Windows NT 10.0; Win64; x64) AppleWebKit/537.36 (KHTML, like Gecko) Chrome/81.0.4044.138 Safari/537.36","1.28","","null","","Whew, you avoided being stung! You earned <b>0 </b> points.","","91","null","0","77","",""
"","html-button-response","189","623109","0.0-3.0-0.91","full","Female","37","United States of America","","C676009","WA","freqGain","Mozilla/5.0 (Windows NT 10.0; Win64; x64) AppleWebKit/537.36 (KHTML, like Gecko) Chrome/81.0.4044.138 Safari/537.36","1.28","","3210","","<img src = 'img/A1-B1-L1-W1.jpg' width = '600'>","0","92","","","","",""
"","html-keyboard-response","190","625112","0.0-3.0-1.91","full","Female","37","United States of America","","C676009","WA","freqGain","Mozilla/5.0 (Windows NT 10.0; Win64; x64) AppleWebKit/537.36 (KHTML, like Gecko) Chrome/81.0.4044.138 Safari/537.36","1.28","","null","","You successfully harvested honey! You earned <b>3 </b>points.","","92","null","3","80","",""
"","html-button-response","191","627098","0.0-3.0-0.92","full","Female","37","United States of America","","C676009","WA","freqGain","Mozilla/5.0 (Windows NT 10.0; Win64; x64) AppleWebKit/537.36 (KHTML, like Gecko) Chrome/81.0.4044.138 Safari/537.36","1.28","","1985","","<img src = 'img/A0-B1-L0-W1.jpg' width = '600'>","1","93","","","","",""
"","html-keyboard-response","192","629101","0.0-3.0-1.92","full","Female","37","United States of America","","C676009","WA","freqGain","Mozilla/5.0 (Windows NT 10.0; Win64; x64) AppleWebKit/537.36 (KHTML, like Gecko) Chrome/81.0.4044.138 Safari/537.36","1.28","","null","","Whew, you avoided being stung! You earned <b>0 </b> points.","","93","null","0","80","",""
"","html-button-response","193","630653","0.0-3.0-0.93","full","Female","37","United States of America","","C676009","WA","freqGain","Mozilla/5.0 (Windows NT 10.0; Win64; x64) AppleWebKit/537.36 (KHTML, like Gecko) Chrome/81.0.4044.138 Safari/537.36","1.28","","1550","","<img src = 'img/A0-B0-L1-W1.jpg' width = '600'>","1","94","","","","",""
"","html-keyboard-response","194","632654","0.0-3.0-1.93","full","Female","37","United States of America","","C676009","WA","freqGain","Mozilla/5.0 (Windows NT 10.0; Win64; x64) AppleWebKit/537.36 (KHTML, like Gecko) Chrome/81.0.4044.138 Safari/537.36","1.28","","null","","Whew, you avoided being stung! You earned <b>0 </b> points.","","94","null","0","80","",""
"","html-button-response","195","633917","0.0-3.0-0.94","full","Female","37","United States of America","","C676009","WA","freqGain","Mozilla/5.0 (Windows NT 10.0; Win64; x64) AppleWebKit/537.36 (KHTML, like Gecko) Chrome/81.0.4044.138 Safari/537.36","1.28","","1261","","<img src = 'img/A0-B1-L1-W1.jpg' width = '600'>","1","95","","","","",""
"","html-keyboard-response","196","635920","0.0-3.0-1.94","full","Female","37","United States of America","","C676009","WA","freqGain","Mozilla/5.0 (Windows NT 10.0; Win64; x64) AppleWebKit/537.36 (KHTML, like Gecko) Chrome/81.0.4044.138 Safari/537.36","1.28","","null","","Whew, you avoided being stung! You earned <b>0 </b> points.","","95","null","0","80","",""
"","html-button-response","197","637608","0.0-3.0-0.95","full","Female","37","United States of America","","C676009","WA","freqGain","Mozilla/5.0 (Windows NT 10.0; Win64; x64) AppleWebKit/537.36 (KHTML, like Gecko) Chrome/81.0.4044.138 Safari/537.36","1.28","","1686","","<img src = 'img/A0-B1-L0-W0.jpg' width = '600'>","1","96","","","","",""
"","html-keyboard-response","198","639609","0.0-3.0-1.95","full","Female","37","United States of America","","C676009","WA","freqGain","Mozilla/5.0 (Windows NT 10.0; Win64; x64) AppleWebKit/537.36 (KHTML, like Gecko) Chrome/81.0.4044.138 Safari/537.36","1.28","","null","","Whew, you avoided being stung! You earned <b>0 </b> points.","","96","null","0","80","",""
"","html-button-response","199","642893","0.0-3.0-0.96","full","Female","37","United States of America","","C676009","WA","freqGain","Mozilla/5.0 (Windows NT 10.0; Win64; x64) AppleWebKit/537.36 (KHTML, like Gecko) Chrome/81.0.4044.138 Safari/537.36","1.28","","3282","","<img src = 'img/A1-B1-L1-W0.jpg' width = '600'>","1","97","","","","",""
"","html-keyboard-response","200","644895","0.0-3.0-1.96","full","Female","37","United States of America","","C676009","WA","freqGain","Mozilla/5.0 (Windows NT 10.0; Win64; x64) AppleWebKit/537.36 (KHTML, like Gecko) Chrome/81.0.4044.138 Safari/537.36","1.28","","null","","Whew, you avoided being stung! You earned <b>0 </b> points.","","97","null","0","80","",""
"","html-button-response","201","646716","0.0-3.0-0.97","full","Female","37","United States of America","","C676009","WA","freqGain","Mozilla/5.0 (Windows NT 10.0; Win64; x64) AppleWebKit/537.36 (KHTML, like Gecko) Chrome/81.0.4044.138 Safari/537.36","1.28","","1820","","<img src = 'img/A0-B1-L1-W0.jpg' width = '600'>","1","98","","","","",""
"","html-keyboard-response","202","648718","0.0-3.0-1.97","full","Female","37","United States of America","","C676009","WA","freqGain","Mozilla/5.0 (Windows NT 10.0; Win64; x64) AppleWebKit/537.36 (KHTML, like Gecko) Chrome/81.0.4044.138 Safari/537.36","1.28","","null","","Whew, you avoided being stung! You earned <b>0 </b> points.","","98","null","0","80","",""
"","html-button-response","203","650573","0.0-3.0-0.98","full","Female","37","United States of America","","C676009","WA","freqGain","Mozilla/5.0 (Windows NT 10.0; Win64; x64) AppleWebKit/537.36 (KHTML, like Gecko) Chrome/81.0.4044.138 Safari/537.36","1.28","","1852","","<img src = 'img/A0-B0-L1-W0.jpg' width = '600'>","1","99","","","","",""
"","html-keyboard-response","204","652575","0.0-3.0-1.98","full","Female","37","United States of America","","C676009","WA","freqGain","Mozilla/5.0 (Windows NT 10.0; Win64; x64) AppleWebKit/537.36 (KHTML, like Gecko) Chrome/81.0.4044.138 Safari/537.36","1.28","","null","","Whew, you avoided being stung! You earned <b>0 </b> points.","","99","null","0","80","",""
"","html-button-response","205","654260","0.0-3.0-0.99","full","Female","37","United States of America","","C676009","WA","freqGain","Mozilla/5.0 (Windows NT 10.0; Win64; x64) AppleWebKit/537.36 (KHTML, like Gecko) Chrome/81.0.4044.138 Safari/537.36","1.28","","1684","","<img src = 'img/A0-B1-L0-W0.jpg' width = '600'>","1","100","","","","",""
"","html-keyboard-response","206","656262","0.0-3.0-1.99","full","Female","37","United States of America","","C676009","WA","freqGain","Mozilla/5.0 (Windows NT 10.0; Win64; x64) AppleWebKit/537.36 (KHTML, like Gecko) Chrome/81.0.4044.138 Safari/537.36","1.28","","null","","Whew, you avoided being stung! You earned <b>0 </b> points.","","100","null","0","80","",""
"","html-button-response","207","659324","0.0-3.0-0.100","full","Female","37","United States of America","","C676009","WA","freqGain","Mozilla/5.0 (Windows NT 10.0; Win64; x64) AppleWebKit/537.36 (KHTML, like Gecko) Chrome/81.0.4044.138 Safari/537.36","1.28","","3060","","<img src = 'img/A1-B1-L1-W1.jpg' width = '600'>","0","101","","","","",""
"","html-keyboard-response","208","661325","0.0-3.0-1.100","full","Female","37","United States of America","","C676009","WA","freqGain","Mozilla/5.0 (Windows NT 10.0; Win64; x64) AppleWebKit/537.36 (KHTML, like Gecko) Chrome/81.0.4044.138 Safari/537.36","1.28","","null","","You successfully harvested honey! You earned <b>3 </b>points.","","101","null","3","83","",""
"","html-button-response","209","664261","0.0-3.0-0.101","full","Female","37","United States of America","","C676009","WA","freqGain","Mozilla/5.0 (Windows NT 10.0; Win64; x64) AppleWebKit/537.36 (KHTML, like Gecko) Chrome/81.0.4044.138 Safari/537.36","1.28","","2932","","<img src = 'img/A1-B0-L0-W1.jpg' width = '600'>","0","102","","","","",""
"","html-keyboard-response","210","666262","0.0-3.0-1.101","full","Female","37","United States of America","","C676009","WA","freqGain","Mozilla/5.0 (Windows NT 10.0; Win64; x64) AppleWebKit/537.36 (KHTML, like Gecko) Chrome/81.0.4044.138 Safari/537.36","1.28","","null","","You successfully harvested honey! You earned <b>3 </b>points.","","102","null","3","86","",""
"","html-button-response","211","668363","0.0-3.0-0.102","full","Female","37","United States of America","","C676009","WA","freqGain","Mozilla/5.0 (Windows NT 10.0; Win64; x64) AppleWebKit/537.36 (KHTML, like Gecko) Chrome/81.0.4044.138 Safari/537.36","1.28","","2099","","<img src = 'img/A0-B1-L0-W1.jpg' width = '600'>","1","103","","","","",""
"","html-keyboard-response","212","670365","0.0-3.0-1.102","full","Female","37","United States of America","","C676009","WA","freqGain","Mozilla/5.0 (Windows NT 10.0; Win64; x64) AppleWebKit/537.36 (KHTML, like Gecko) Chrome/81.0.4044.138 Safari/537.36","1.28","","null","","Whew, you avoided being stung! You earned <b>0 </b> points.","","103","null","0","86","",""
"","html-button-response","213","672052","0.0-3.0-0.103","full","Female","37","United States of America","","C676009","WA","freqGain","Mozilla/5.0 (Windows NT 10.0; Win64; x64) AppleWebKit/537.36 (KHTML, like Gecko) Chrome/81.0.4044.138 Safari/537.36","1.28","","1685","","<img src = 'img/A0-B0-L0-W1.jpg' width = '600'>","1","104","","","","",""
"","html-keyboard-response","214","674054","0.0-3.0-1.103","full","Female","37","United States of America","","C676009","WA","freqGain","Mozilla/5.0 (Windows NT 10.0; Win64; x64) AppleWebKit/537.36 (KHTML, like Gecko) Chrome/81.0.4044.138 Safari/537.36","1.28","","null","","Whew, you avoided being stung! You earned <b>0 </b> points.","","104","null","0","86","",""
"","html-button-response","215","676251","0.0-3.0-0.104","full","Female","37","United States of America","","C676009","WA","freqGain","Mozilla/5.0 (Windows NT 10.0; Win64; x64) AppleWebKit/537.36 (KHTML, like Gecko) Chrome/81.0.4044.138 Safari/537.36","1.28","","2195","","<img src = 'img/A0-B0-L1-W1.jpg' width = '600'>","1","105","","","","",""
"","html-keyboard-response","216","678253","0.0-3.0-1.104","full","Female","37","United States of America","","C676009","WA","freqGain","Mozilla/5.0 (Windows NT 10.0; Win64; x64) AppleWebKit/537.36 (KHTML, like Gecko) Chrome/81.0.4044.138 Safari/537.36","1.28","","null","","Whew, you avoided being stung! You earned <b>0 </b> points.","","105","null","0","86","",""
"","html-button-response","217","680459","0.0-3.0-0.105","full","Female","37","United States of America","","C676009","WA","freqGain","Mozilla/5.0 (Windows NT 10.0; Win64; x64) AppleWebKit/537.36 (KHTML, like Gecko) Chrome/81.0.4044.138 Safari/537.36","1.28","","2204","","<img src = 'img/A1-B0-L1-W1.jpg' width = '600'>","0","106","","","","",""
"","html-keyboard-response","218","682461","0.0-3.0-1.105","full","Female","37","United States of America","","C676009","WA","freqGain","Mozilla/5.0 (Windows NT 10.0; Win64; x64) AppleWebKit/537.36 (KHTML, like Gecko) Chrome/81.0.4044.138 Safari/537.36","1.28","","null","","You successfully harvested honey! You earned <b>3 </b>points.","","106","null","3","89","",""
"","html-button-response","219","684468","0.0-3.0-0.106","full","Female","37","United States of America","","C676009","WA","freqGain","Mozilla/5.0 (Windows NT 10.0; Win64; x64) AppleWebKit/537.36 (KHTML, like Gecko) Chrome/81.0.4044.138 Safari/537.36","1.28","","2004","","<img src = 'img/A1-B0-L0-W0.jpg' width = '600'>","1","107","","","","",""
"","html-keyboard-response","220","686470","0.0-3.0-1.106","full","Female","37","United States of America","","C676009","WA","freqGain","Mozilla/5.0 (Windows NT 10.0; Win64; x64) AppleWebKit/537.36 (KHTML, like Gecko) Chrome/81.0.4044.138 Safari/537.36","1.28","","null","","Whew, you avoided being stung! You earned <b>0 </b> points.","","107","null","0","89","",""
"","html-button-response","221","687939","0.0-3.0-0.107","full","Female","37","United States of America","","C676009","WA","freqGain","Mozilla/5.0 (Windows NT 10.0; Win64; x64) AppleWebKit/537.36 (KHTML, like Gecko) Chrome/81.0.4044.138 Safari/537.36","1.28","","1467","","<img src = 'img/A1-B1-L0-W0.jpg' width = '600'>","1","108","","","","",""
"","html-keyboard-response","222","689940","0.0-3.0-1.107","full","Female","37","United States of America","","C676009","WA","freqGain","Mozilla/5.0 (Windows NT 10.0; Win64; x64) AppleWebKit/537.36 (KHTML, like Gecko) Chrome/81.0.4044.138 Safari/537.36","1.28","","null","","Whew, you avoided being stung! You earned <b>0 </b> points.","","108","null","0","89","",""
"","html-button-response","223","691443","0.0-3.0-0.108","full","Female","37","United States of America","","C676009","WA","freqGain","Mozilla/5.0 (Windows NT 10.0; Win64; x64) AppleWebKit/537.36 (KHTML, like Gecko) Chrome/81.0.4044.138 Safari/537.36","1.28","","1500","","<img src = 'img/A0-B1-L1-W1.jpg' width = '600'>","1","109","","","","",""
"","html-keyboard-response","224","693444","0.0-3.0-1.108","full","Female","37","United States of America","","C676009","WA","freqGain","Mozilla/5.0 (Windows NT 10.0; Win64; x64) AppleWebKit/537.36 (KHTML, like Gecko) Chrome/81.0.4044.138 Safari/537.36","1.28","","null","","Whew, you avoided being stung! You earned <b>0 </b> points.","","109","null","0","89","",""
"","html-button-response","225","698603","0.0-3.0-0.109","full","Female","37","United States of America","","C676009","WA","freqGain","Mozilla/5.0 (Windows NT 10.0; Win64; x64) AppleWebKit/537.36 (KHTML, like Gecko) Chrome/81.0.4044.138 Safari/537.36","1.28","","5156","","<img src = 'img/A1-B1-L0-W1.jpg' width = '600'>","0","110","","","","",""
"","html-keyboard-response","226","700604","0.0-3.0-1.109","full","Female","37","United States of America","","C676009","WA","freqGain","Mozilla/5.0 (Windows NT 10.0; Win64; x64) AppleWebKit/537.36 (KHTML, like Gecko) Chrome/81.0.4044.138 Safari/537.36","1.28","","null","","You successfully harvested honey! You earned <b>3 </b>points.","","110","null","3","92","",""
"","html-button-response","227","702450","0.0-3.0-0.110","full","Female","37","United States of America","","C676009","WA","freqGain","Mozilla/5.0 (Windows NT 10.0; Win64; x64) AppleWebKit/537.36 (KHTML, like Gecko) Chrome/81.0.4044.138 Safari/537.36","1.28","","1845","","<img src = 'img/A0-B0-L0-W0.jpg' width = '600'>","1","111","","","","",""
"","html-keyboard-response","228","704453","0.0-3.0-1.110","full","Female","37","United States of America","","C676009","WA","freqGain","Mozilla/5.0 (Windows NT 10.0; Win64; x64) AppleWebKit/537.36 (KHTML, like Gecko) Chrome/81.0.4044.138 Safari/537.36","1.28","","null","","Whew, you avoided being stung! You earned <b>0 </b> points.","","111","null","0","92","",""
"","html-button-response","229","706746","0.0-3.0-0.111","full","Female","37","United States of America","","C676009","WA","freqGain","Mozilla/5.0 (Windows NT 10.0; Win64; x64) AppleWebKit/537.36 (KHTML, like Gecko) Chrome/81.0.4044.138 Safari/537.36","1.28","","2292","","<img src = 'img/A1-B0-L1-W0.jpg' width = '600'>","1","112","","","","",""
"","html-keyboard-response","230","708748","0.0-3.0-1.111","full","Female","37","United States of America","","C676009","WA","freqGain","Mozilla/5.0 (Windows NT 10.0; Win64; x64) AppleWebKit/537.36 (KHTML, like Gecko) Chrome/81.0.4044.138 Safari/537.36","1.28","","null","","Whew, you avoided being stung! You earned <b>0 </b> points.","","112","null","0","92","",""
"","html-button-response","231","710845","0.0-3.0-0.112","full","Female","37","United States of America","","C676009","WA","freqGain","Mozilla/5.0 (Windows NT 10.0; Win64; x64) AppleWebKit/537.36 (KHTML, like Gecko) Chrome/81.0.4044.138 Safari/537.36","1.28","","2094","","<img src = 'img/A1-B1-L0-W1.jpg' width = '600'>","0","113","","","","",""
"","html-keyboard-response","232","712847","0.0-3.0-1.112","full","Female","37","United States of America","","C676009","WA","freqGain","Mozilla/5.0 (Windows NT 10.0; Win64; x64) AppleWebKit/537.36 (KHTML, like Gecko) Chrome/81.0.4044.138 Safari/537.36","1.28","","null","","You successfully harvested honey! You earned <b>3 </b>points.","","113","null","3","95","",""
"","html-button-response","233","714514","0.0-3.0-0.113","full","Female","37","United States of America","","C676009","WA","freqGain","Mozilla/5.0 (Windows NT 10.0; Win64; x64) AppleWebKit/537.36 (KHTML, like Gecko) Chrome/81.0.4044.138 Safari/537.36","1.28","","1665","","<img src = 'img/A0-B1-L0-W1.jpg' width = '600'>","1","114","","","","",""
"","html-keyboard-response","234","716520","0.0-3.0-1.113","full","Female","37","United States of America","","C676009","WA","freqGain","Mozilla/5.0 (Windows NT 10.0; Win64; x64) AppleWebKit/537.36 (KHTML, like Gecko) Chrome/81.0.4044.138 Safari/537.36","1.28","","null","","Whew, you avoided being stung! You earned <b>0 </b> points.","","114","null","0","95","",""
"","html-button-response","235","717707","0.0-3.0-0.114","full","Female","37","United States of America","","C676009","WA","freqGain","Mozilla/5.0 (Windows NT 10.0; Win64; x64) AppleWebKit/537.36 (KHTML, like Gecko) Chrome/81.0.4044.138 Safari/537.36","1.28","","1184","","<img src = 'img/A1-B0-L0-W0.jpg' width = '600'>","1","115","","","","",""
"","html-keyboard-response","236","719709","0.0-3.0-1.114","full","Female","37","United States of America","","C676009","WA","freqGain","Mozilla/5.0 (Windows NT 10.0; Win64; x64) AppleWebKit/537.36 (KHTML, like Gecko) Chrome/81.0.4044.138 Safari/537.36","1.28","","null","","Whew, you avoided being stung! You earned <b>0 </b> points.","","115","null","0","95","",""
"","html-button-response","237","721037","0.0-3.0-0.115","full","Female","37","United States of America","","C676009","WA","freqGain","Mozilla/5.0 (Windows NT 10.0; Win64; x64) AppleWebKit/537.36 (KHTML, like Gecko) Chrome/81.0.4044.138 Safari/537.36","1.28","","1326","","<img src = 'img/A0-B0-L1-W0.jpg' width = '600'>","1","116","","","","",""
"","html-keyboard-response","238","723039","0.0-3.0-1.115","full","Female","37","United States of America","","C676009","WA","freqGain","Mozilla/5.0 (Windows NT 10.0; Win64; x64) AppleWebKit/537.36 (KHTML, like Gecko) Chrome/81.0.4044.138 Safari/537.36","1.28","","null","","Whew, you avoided being stung! You earned <b>0 </b> points.","","116","null","0","95","",""
"","html-button-response","239","724853","0.0-3.0-0.116","full","Female","37","United States of America","","C676009","WA","freqGain","Mozilla/5.0 (Windows NT 10.0; Win64; x64) AppleWebKit/537.36 (KHTML, like Gecko) Chrome/81.0.4044.138 Safari/537.36","1.28","","1813","","<img src = 'img/A0-B0-L0-W1.jpg' width = '600'>","1","117","","","","",""
"","html-keyboard-response","240","726856","0.0-3.0-1.116","full","Female","37","United States of America","","C676009","WA","freqGain","Mozilla/5.0 (Windows NT 10.0; Win64; x64) AppleWebKit/537.36 (KHTML, like Gecko) Chrome/81.0.4044.138 Safari/537.36","1.28","","null","","Whew, you avoided being stung! You earned <b>0 </b> points.","","117","null","0","95","",""
"","html-button-response","241","730283","0.0-3.0-0.117","full","Female","37","United States of America","","C676009","WA","freqGain","Mozilla/5.0 (Windows NT 10.0; Win64; x64) AppleWebKit/537.36 (KHTML, like Gecko) Chrome/81.0.4044.138 Safari/537.36","1.28","","3426","","<img src = 'img/A1-B0-L1-W0.jpg' width = '600'>","1","118","","","","",""
"","html-keyboard-response","242","732285","0.0-3.0-1.117","full","Female","37","United States of America","","C676009","WA","freqGain","Mozilla/5.0 (Windows NT 10.0; Win64; x64) AppleWebKit/537.36 (KHTML, like Gecko) Chrome/81.0.4044.138 Safari/537.36","1.28","","null","","Whew, you avoided being stung! You earned <b>0 </b> points.","","118","null","0","95","",""
"","html-button-response","243","734769","0.0-3.0-0.118","full","Female","37","United States of America","","C676009","WA","freqGain","Mozilla/5.0 (Windows NT 10.0; Win64; x64) AppleWebKit/537.36 (KHTML, like Gecko) Chrome/81.0.4044.138 Safari/537.36","1.28","","2482","","<img src = 'img/A1-B0-L0-W1.jpg' width = '600'>","0","119","","","","",""
"","html-keyboard-response","244","736771","0.0-3.0-1.118","full","Female","37","United States of America","","C676009","WA","freqGain","Mozilla/5.0 (Windows NT 10.0; Win64; x64) AppleWebKit/537.36 (KHTML, like Gecko) Chrome/81.0.4044.138 Safari/537.36","1.28","","null","","You successfully harvested honey! You earned <b>3 </b>points.","","119","null","3","98","",""
"","html-button-response","245","739770","0.0-3.0-0.119","full","Female","37","United States of America","","C676009","WA","freqGain","Mozilla/5.0 (Windows NT 10.0; Win64; x64) AppleWebKit/537.36 (KHTML, like Gecko) Chrome/81.0.4044.138 Safari/537.36","1.28","","2998","","<img src = 'img/A0-B1-L1-W0.jpg' width = '600'>","1","120","","","","",""
"","html-keyboard-response","246","741772","0.0-3.0-1.119","full","Female","37","United States of America","","C676009","WA","freqGain","Mozilla/5.0 (Windows NT 10.0; Win64; x64) AppleWebKit/537.36 (KHTML, like Gecko) Chrome/81.0.4044.138 Safari/537.36","1.28","","null","","Whew, you avoided being stung! You earned <b>0 </b> points.","","120","null","0","98","",""
"","html-button-response","247","742923","0.0-3.0-0.120","full","Female","37","United States of America","","C676009","WA","freqGain","Mozilla/5.0 (Windows NT 10.0; Win64; x64) AppleWebKit/537.36 (KHTML, like Gecko) Chrome/81.0.4044.138 Safari/537.36","1.28","","1149","","<img src = 'img/A0-B1-L1-W1.jpg' width = '600'>","1","121","","","","",""
"","html-keyboard-response","248","744924","0.0-3.0-1.120","full","Female","37","United States of America","","C676009","WA","freqGain","Mozilla/5.0 (Windows NT 10.0; Win64; x64) AppleWebKit/537.36 (KHTML, like Gecko) Chrome/81.0.4044.138 Safari/537.36","1.28","","null","","Whew, you avoided being stung! You earned <b>0 </b> points.","","121","null","0","98","",""
"","html-button-response","249","747305","0.0-3.0-0.121","full","Female","37","United States of America","","C676009","WA","freqGain","Mozilla/5.0 (Windows NT 10.0; Win64; x64) AppleWebKit/537.36 (KHTML, like Gecko) Chrome/81.0.4044.138 Safari/537.36","1.28","","2378","","<img src = 'img/A1-B1-L1-W1.jpg' width = '600'>","0","122","","","","",""
"","html-keyboard-response","250","749308","0.0-3.0-1.121","full","Female","37","United States of America","","C676009","WA","freqGain","Mozilla/5.0 (Windows NT 10.0; Win64; x64) AppleWebKit/537.36 (KHTML, like Gecko) Chrome/81.0.4044.138 Safari/537.36","1.28","","null","","You successfully harvested honey! You earned <b>3 </b>points.","","122","null","3","101","",""
"","html-button-response","251","750976","0.0-3.0-0.122","full","Female","37","United States of America","","C676009","WA","freqGain","Mozilla/5.0 (Windows NT 10.0; Win64; x64) AppleWebKit/537.36 (KHTML, like Gecko) Chrome/81.0.4044.138 Safari/537.36","1.28","","1667","","<img src = 'img/A0-B0-L0-W0.jpg' width = '600'>","1","123","","","","",""
"","html-keyboard-response","252","752979","0.0-3.0-1.122","full","Female","37","United States of America","","C676009","WA","freqGain","Mozilla/5.0 (Windows NT 10.0; Win64; x64) AppleWebKit/537.36 (KHTML, like Gecko) Chrome/81.0.4044.138 Safari/537.36","1.28","","null","","Whew, you avoided being stung! You earned <b>0 </b> points.","","123","null","0","101","",""
"","html-button-response","253","755473","0.0-3.0-0.123","full","Female","37","United States of America","","C676009","WA","freqGain","Mozilla/5.0 (Windows NT 10.0; Win64; x64) AppleWebKit/537.36 (KHTML, like Gecko) Chrome/81.0.4044.138 Safari/537.36","1.28","","2492","","<img src = 'img/A1-B1-L1-W0.jpg' width = '600'>","1","124","","","","",""
"","html-keyboard-response","254","757475","0.0-3.0-1.123","full","Female","37","United States of America","","C676009","WA","freqGain","Mozilla/5.0 (Windows NT 10.0; Win64; x64) AppleWebKit/537.36 (KHTML, like Gecko) Chrome/81.0.4044.138 Safari/537.36","1.28","","null","","Whew, you avoided being stung! You earned <b>0 </b> points.","","124","null","0","101","",""
"","html-button-response","255","759354","0.0-3.0-0.124","full","Female","37","United States of America","","C676009","WA","freqGain","Mozilla/5.0 (Windows NT 10.0; Win64; x64) AppleWebKit/537.36 (KHTML, like Gecko) Chrome/81.0.4044.138 Safari/537.36","1.28","","1876","","<img src = 'img/A1-B1-L0-W0.jpg' width = '600'>","1","125","","","","",""
"","html-keyboard-response","256","761355","0.0-3.0-1.124","full","Female","37","United States of America","","C676009","WA","freqGain","Mozilla/5.0 (Windows NT 10.0; Win64; x64) AppleWebKit/537.36 (KHTML, like Gecko) Chrome/81.0.4044.138 Safari/537.36","1.28","","null","","Whew, you avoided being stung! You earned <b>0 </b> points.","","125","null","0","101","",""
"","html-button-response","257","763043","0.0-3.0-0.125","full","Female","37","United States of America","","C676009","WA","freqGain","Mozilla/5.0 (Windows NT 10.0; Win64; x64) AppleWebKit/537.36 (KHTML, like Gecko) Chrome/81.0.4044.138 Safari/537.36","1.28","","1686","","<img src = 'img/A1-B0-L1-W1.jpg' width = '600'>","0","126","","","","",""
"","html-keyboard-response","258","765045","0.0-3.0-1.125","full","Female","37","United States of America","","C676009","WA","freqGain","Mozilla/5.0 (Windows NT 10.0; Win64; x64) AppleWebKit/537.36 (KHTML, like Gecko) Chrome/81.0.4044.138 Safari/537.36","1.28","","null","","You successfully harvested honey! You earned <b>3 </b>points.","","126","null","3","104","",""
"","html-button-response","259","766697","0.0-3.0-0.126","full","Female","37","United States of America","","C676009","WA","freqGain","Mozilla/5.0 (Windows NT 10.0; Win64; x64) AppleWebKit/537.36 (KHTML, like Gecko) Chrome/81.0.4044.138 Safari/537.36","1.28","","1649","","<img src = 'img/A0-B0-L1-W1.jpg' width = '600'>","1","127","","","","",""
"","html-keyboard-response","260","768699","0.0-3.0-1.126","full","Female","37","United States of America","","C676009","WA","freqGain","Mozilla/5.0 (Windows NT 10.0; Win64; x64) AppleWebKit/537.36 (KHTML, like Gecko) Chrome/81.0.4044.138 Safari/537.36","1.28","","null","","Whew, you avoided being stung! You earned <b>0 </b> points.","","127","null","0","104","",""
"","html-button-response","261","771265","0.0-3.0-0.127","full","Female","37","United States of America","","C676009","WA","freqGain","Mozilla/5.0 (Windows NT 10.0; Win64; x64) AppleWebKit/537.36 (KHTML, like Gecko) Chrome/81.0.4044.138 Safari/537.36","1.28","","2564","","<img src = 'img/A0-B1-L0-W0.jpg' width = '600'>","1","128","","","","",""
"","html-keyboard-response","262","773267","0.0-3.0-1.127","full","Female","37","United States of America","","C676009","WA","freqGain","Mozilla/5.0 (Windows NT 10.0; Win64; x64) AppleWebKit/537.36 (KHTML, like Gecko) Chrome/81.0.4044.138 Safari/537.36","1.28","","null","","Whew, you avoided being stung! You earned <b>0 </b> points.","","128","null","0","104","",""
"","external-html","263","838248","0.0-4.0","full","Female","37","United States of America","","C676009","WA","freqGain","Mozilla/5.0 (Windows NT 10.0; Win64; x64) AppleWebKit/537.36 (KHTML, like Gecko) Chrome/81.0.4044.138 Safari/537.36","1.28","","63566.21499999892","","","","","","","","./pages/testinstr-fl.html",""
"","html-button-response","264","841982","0.0-5.0-0.0","full","Female","37","United States of America","","C676009","WA","freqGain","Mozilla/5.0 (Windows NT 10.0; Win64; x64) AppleWebKit/537.36 (KHTML, like Gecko) Chrome/81.0.4044.138 Safari/537.36","1.28","","3731","","<img src = 'img/A0-B0-L1-W0.jpg' width = '600'>","1","","","","","","1"
"","html-keyboard-response","265","843384","0.0-5.0-1.0","full","Female","37","United States of America","","C676009","WA","freqGain","Mozilla/5.0 (Windows NT 10.0; Win64; x64) AppleWebKit/537.36 (KHTML, like Gecko) Chrome/81.0.4044.138 Safari/537.36","1.28","","null","","","","","null","0","104","","1"
"","html-button-response","266","846319","0.0-5.0-0.1","full","Female","37","United States of America","","C676009","WA","freqGain","Mozilla/5.0 (Windows NT 10.0; Win64; x64) AppleWebKit/537.36 (KHTML, like Gecko) Chrome/81.0.4044.138 Safari/537.36","1.28","","2933","","<img src = 'img/A1-B0-L0-W1.jpg' width = '600'>","0","","","","","","2"
"","html-keyboard-response","267","847723","0.0-5.0-1.1","full","Female","37","United States of America","","C676009","WA","freqGain","Mozilla/5.0 (Windows NT 10.0; Win64; x64) AppleWebKit/537.36 (KHTML, like Gecko) Chrome/81.0.4044.138 Safari/537.36","1.28","","null","","","","","null","3","107","","2"
"","html-button-response","268","849479","0.0-5.0-0.2","full","Female","37","United States of America","","C676009","WA","freqGain","Mozilla/5.0 (Windows NT 10.0; Win64; x64) AppleWebKit/537.36 (KHTML, like Gecko) Chrome/81.0.4044.138 Safari/537.36","1.28","","1753","","<img src = 'img/A0-B1-L1-W1.jpg' width = '600'>","1","","","","","","3"
"","html-keyboard-response","269","850881","0.0-5.0-1.2","full","Female","37","United States of America","","C676009","WA","freqGain","Mozilla/5.0 (Windows NT 10.0; Win64; x64) AppleWebKit/537.36 (KHTML, like Gecko) Chrome/81.0.4044.138 Safari/537.36","1.28","","null","","","","","null","0","107","","3"
"","html-button-response","270","853280","0.0-5.0-0.3","full","Female","37","United States of America","","C676009","WA","freqGain","Mozilla/5.0 (Windows NT 10.0; Win64; x64) AppleWebKit/537.36 (KHTML, like Gecko) Chrome/81.0.4044.138 Safari/537.36","1.28","","2397","","<img src = 'img/A1-B1-L1-W1.jpg' width = '600'>","0","","","","","","4"
"","html-keyboard-response","271","854682","0.0-5.0-1.3","full","Female","37","United States of America","","C676009","WA","freqGain","Mozilla/5.0 (Windows NT 10.0; Win64; x64) AppleWebKit/537.36 (KHTML, like Gecko) Chrome/81.0.4044.138 Safari/537.36","1.28","","null","","","","","null","3","110","","4"
"","html-button-response","272","856302","0.0-5.0-0.4","full","Female","37","United States of America","","C676009","WA","freqGain","Mozilla/5.0 (Windows NT 10.0; Win64; x64) AppleWebKit/537.36 (KHTML, like Gecko) Chrome/81.0.4044.138 Safari/537.36","1.28","","1618","","<img src = 'img/A1-B0-L0-W0.jpg' width = '600'>","1","","","","","","5"
"","html-keyboard-response","273","857703","0.0-5.0-1.4","full","Female","37","United States of America","","C676009","WA","freqGain","Mozilla/5.0 (Windows NT 10.0; Win64; x64) AppleWebKit/537.36 (KHTML, like Gecko) Chrome/81.0.4044.138 Safari/537.36","1.28","","null","","","","","null","0","110","","5"
"","html-button-response","274","860655","0.0-5.0-0.5","full","Female","37","United States of America","","C676009","WA","freqGain","Mozilla/5.0 (Windows NT 10.0; Win64; x64) AppleWebKit/537.36 (KHTML, like Gecko) Chrome/81.0.4044.138 Safari/537.36","1.28","","2950","","<img src = 'img/A0-B0-L0-W1.jpg' width = '600'>","1","","","","","","6"
"","html-keyboard-response","275","862057","0.0-5.0-1.5","full","Female","37","United States of America","","C676009","WA","freqGain","Mozilla/5.0 (Windows NT 10.0; Win64; x64) AppleWebKit/537.36 (KHTML, like Gecko) Chrome/81.0.4044.138 Safari/537.36","1.28","","null","","","","","null","0","110","","6"
"","html-button-response","276","864631","0.0-5.0-0.6","full","Female","37","United States of America","","C676009","WA","freqGain","Mozilla/5.0 (Windows NT 10.0; Win64; x64) AppleWebKit/537.36 (KHTML, like Gecko) Chrome/81.0.4044.138 Safari/537.36","1.28","","2572","","<img src = 'img/A0-B1-L1-W0.jpg' width = '600'>","1","","","","","","7"
"","html-keyboard-response","277","866033","0.0-5.0-1.6","full","Female","37","United States of America","","C676009","WA","freqGain","Mozilla/5.0 (Windows NT 10.0; Win64; x64) AppleWebKit/537.36 (KHTML, like Gecko) Chrome/81.0.4044.138 Safari/537.36","1.28","","null","","","","","null","0","110","","7"
"","html-button-response","278","867520","0.0-5.0-0.7","full","Female","37","United States of America","","C676009","WA","freqGain","Mozilla/5.0 (Windows NT 10.0; Win64; x64) AppleWebKit/537.36 (KHTML, like Gecko) Chrome/81.0.4044.138 Safari/537.36","1.28","","1485","","<img src = 'img/A0-B1-L0-W1.jpg' width = '600'>","1","","","","","","8"
"","html-keyboard-response","279","868921","0.0-5.0-1.7","full","Female","37","United States of America","","C676009","WA","freqGain","Mozilla/5.0 (Windows NT 10.0; Win64; x64) AppleWebKit/537.36 (KHTML, like Gecko) Chrome/81.0.4044.138 Safari/537.36","1.28","","null","","","","","null","0","110","","8"
"","html-button-response","280","870558","0.0-5.0-0.8","full","Female","37","United States of America","","C676009","WA","freqGain","Mozilla/5.0 (Windows NT 10.0; Win64; x64) AppleWebKit/537.36 (KHTML, like Gecko) Chrome/81.0.4044.138 Safari/537.36","1.28","","1635","","<img src = 'img/A1-B1-L0-W0.jpg' width = '600'>","1","","","","","","9"
