"success","trial_type","trial_index","time_elapsed","internal_node_id","feedback","gender","age","country","email","turkcode","relevantDim","condition","browserinfo","bonus","view_history","rt","responses","stimulus","button_pressed","i","key_press","earnedThis","earnedCumulative","url","k"
"true","fullscreen","0","4824","0.0-0.0","partial","Female","35","United States of America","","C956836","LB","freqGain","Mozilla/5.0 (Macintosh; Intel Mac OS X 10_14_5) AppleWebKit/537.36 (KHTML, like Gecko) Chrome/81.0.4044.138 Safari/537.36","1.29","","","","","","","","","","",""
"","instructions","1","117304","0.0-1.0-0.0","partial","Female","35","United States of America","","C956836","LB","freqGain","Mozilla/5.0 (Macintosh; Intel Mac OS X 10_14_5) AppleWebKit/537.36 (KHTML, like Gecko) Chrome/81.0.4044.138 Safari/537.36","1.29","[{""page_index"":0,""viewing_time"":17252},{""page_index"":1,""viewing_time"":65826},{""page_index"":2,""viewing_time"":29400}]","112479","","","","","","","","",""
"","survey-html-form","2","195428","0.0-1.0-1.0","partial","Female","35","United States of America","","C956836","LB","freqGain","Mozilla/5.0 (Macintosh; Intel Mac OS X 10_14_5) AppleWebKit/537.36 (KHTML, like Gecko) Chrome/81.0.4044.138 Safari/537.36","1.29","","78119.46000000171","{""legs"":""checked"",""body"":""checked"",""wings"":""checked"",""antennae"":""checked"",""change"":""no"",""telldangerous"":""feature"",""avoidinfo"":""noInfo""}","","","","","","","",""
"","html-button-response","3","197507","0.0-2.0","partial","Female","35","United States of America","","C956836","LB","freqGain","Mozilla/5.0 (Macintosh; Intel Mac OS X 10_14_5) AppleWebKit/537.36 (KHTML, like Gecko) Chrome/81.0.4044.138 Safari/537.36","1.29","","2077","","<p>Well done! This is now the last page of instructions.</p> <p>You're going to start experiment now.</p>","0","","","","","",""
"","html-button-response","4","205445","0.0-3.0-0.0","partial","Female","35","United States of America","","C956836","LB","freqGain","Mozilla/5.0 (Macintosh; Intel Mac OS X 10_14_5) AppleWebKit/537.36 (KHTML, like Gecko) Chrome/81.0.4044.138 Safari/537.36","1.29","","7936","","<img src = 'img/A0-B0-L1-W0.jpg' width = '600'>","0","1","","","","",""
"","html-keyboard-response","5","207451","0.0-3.0-1.0","partial","Female","35","United States of America","","C956836","LB","freqGain","Mozilla/5.0 (Macintosh; Intel Mac OS X 10_14_5) AppleWebKit/537.36 (KHTML, like Gecko) Chrome/81.0.4044.138 Safari/537.36","1.29","","null","","Ouch, you were stung! You lost <b>-1 </b>point.","","1","null","-1","49","",""
"","html-button-response","6","216901","0.0-3.0-0.1","partial","Female","35","United States of America","","C956836","LB","freqGain","Mozilla/5.0 (Macintosh; Intel Mac OS X 10_14_5) AppleWebKit/537.36 (KHTML, like Gecko) Chrome/81.0.4044.138 Safari/537.36","1.29","","9447","","<img src = 'img/A1-B0-L0-W1.jpg' width = '600'>","0","2","","","","",""
"","html-keyboard-response","7","218907","0.0-3.0-1.1","partial","Female","35","United States of America","","C956836","LB","freqGain","Mozilla/5.0 (Macintosh; Intel Mac OS X 10_14_5) AppleWebKit/537.36 (KHTML, like Gecko) Chrome/81.0.4044.138 Safari/537.36","1.29","","null","","Ouch, you were stung! You lost <b>-1 </b>point.","","2","null","-1","48","",""
"","html-button-response","8","221890","0.0-3.0-0.2","partial","Female","35","United States of America","","C956836","LB","freqGain","Mozilla/5.0 (Macintosh; Intel Mac OS X 10_14_5) AppleWebKit/537.36 (KHTML, like Gecko) Chrome/81.0.4044.138 Safari/537.36","1.29","","2981","","<img src = 'img/A0-B1-L0-W1.jpg' width = '600'>","0","3","","","","",""
"","html-keyboard-response","9","223896","0.0-3.0-1.2","partial","Female","35","United States of America","","C956836","LB","freqGain","Mozilla/5.0 (Macintosh; Intel Mac OS X 10_14_5) AppleWebKit/537.36 (KHTML, like Gecko) Chrome/81.0.4044.138 Safari/537.36","1.29","","null","","Ouch, you were stung! You lost <b>-1 </b>point.","","3","null","-1","47","",""
"","html-button-response","10","229451","0.0-3.0-0.3","partial","Female","35","United States of America","","C956836","LB","freqGain","Mozilla/5.0 (Macintosh; Intel Mac OS X 10_14_5) AppleWebKit/537.36 (KHTML, like Gecko) Chrome/81.0.4044.138 Safari/537.36","1.29","","5553","","<img src = 'img/A1-B1-L0-W0.jpg' width = '600'>","0","4","","","","",""
"","html-keyboard-response","11","231457","0.0-3.0-1.3","partial","Female","35","United States of America","","C956836","LB","freqGain","Mozilla/5.0 (Macintosh; Intel Mac OS X 10_14_5) AppleWebKit/537.36 (KHTML, like Gecko) Chrome/81.0.4044.138 Safari/537.36","1.29","","null","","Ouch, you were stung! You lost <b>-1 </b>point.","","4","null","-1","46","",""
"","html-button-response","12","240125","0.0-3.0-0.4","partial","Female","35","United States of America","","C956836","LB","freqGain","Mozilla/5.0 (Macintosh; Intel Mac OS X 10_14_5) AppleWebKit/537.36 (KHTML, like Gecko) Chrome/81.0.4044.138 Safari/537.36","1.29","","8665","","<img src = 'img/A0-B1-L0-W0.jpg' width = '600'>","0","5","","","","",""
"","html-keyboard-response","13","242131","0.0-3.0-1.4","partial","Female","35","United States of America","","C956836","LB","freqGain","Mozilla/5.0 (Macintosh; Intel Mac OS X 10_14_5) AppleWebKit/537.36 (KHTML, like Gecko) Chrome/81.0.4044.138 Safari/537.36","1.29","","null","","Ouch, you were stung! You lost <b>-1 </b>point.","","5","null","-1","45","",""
"","html-button-response","14","254653","0.0-3.0-0.5","partial","Female","35","United States of America","","C956836","LB","freqGain","Mozilla/5.0 (Macintosh; Intel Mac OS X 10_14_5) AppleWebKit/537.36 (KHTML, like Gecko) Chrome/81.0.4044.138 Safari/537.36","1.29","","12521","","<img src = 'img/A1-B1-L1-W1.jpg' width = '600'>","0","6","","","","",""
"","html-keyboard-response","15","256659","0.0-3.0-1.5","partial","Female","35","United States of America","","C956836","LB","freqGain","Mozilla/5.0 (Macintosh; Intel Mac OS X 10_14_5) AppleWebKit/537.36 (KHTML, like Gecko) Chrome/81.0.4044.138 Safari/537.36","1.29","","null","","You successfully harvested honey! You earned <b>3 </b>points.","","6","null","3","48","",""
"","html-button-response","16","257956","0.0-3.0-0.6","partial","Female","35","United States of America","","C956836","LB","freqGain","Mozilla/5.0 (Macintosh; Intel Mac OS X 10_14_5) AppleWebKit/537.36 (KHTML, like Gecko) Chrome/81.0.4044.138 Safari/537.36","1.29","","1296","","<img src = 'img/A1-B1-L1-W0.jpg' width = '600'>","0","7","","","","",""
"","html-keyboard-response","17","259963","0.0-3.0-1.6","partial","Female","35","United States of America","","C956836","LB","freqGain","Mozilla/5.0 (Macintosh; Intel Mac OS X 10_14_5) AppleWebKit/537.36 (KHTML, like Gecko) Chrome/81.0.4044.138 Safari/537.36","1.29","","null","","You successfully harvested honey! You earned <b>3 </b>points.","","7","null","3","51","",""
"","html-button-response","18","262696","0.0-3.0-0.7","partial","Female","35","United States of America","","C956836","LB","freqGain","Mozilla/5.0 (Macintosh; Intel Mac OS X 10_14_5) AppleWebKit/537.36 (KHTML, like Gecko) Chrome/81.0.4044.138 Safari/537.36","1.29","","2732","","<img src = 'img/A0-B0-L1-W1.jpg' width = '600'>","1","8","","","","",""
"","html-keyboard-response","19","264702","0.0-3.0-1.7","partial","Female","35","United States of America","","C956836","LB","freqGain","Mozilla/5.0 (Macintosh; Intel Mac OS X 10_14_5) AppleWebKit/537.36 (KHTML, like Gecko) Chrome/81.0.4044.138 Safari/537.36","1.29","","null","","You avoided this hive. You earned <b>0 </b>points.","","8","null","0","51","",""
"","html-button-response","20","267067","0.0-3.0-0.8","partial","Female","35","United States of America","","C956836","LB","freqGain","Mozilla/5.0 (Macintosh; Intel Mac OS X 10_14_5) AppleWebKit/537.36 (KHTML, like Gecko) Chrome/81.0.4044.138 Safari/537.36","1.29","","2364","","<img src = 'img/A0-B1-L1-W0.jpg' width = '600'>","1","9","","","","",""
"","html-keyboard-response","21","269073","0.0-3.0-1.8","partial","Female","35","United States of America","","C956836","LB","freqGain","Mozilla/5.0 (Macintosh; Intel Mac OS X 10_14_5) AppleWebKit/537.36 (KHTML, like Gecko) Chrome/81.0.4044.138 Safari/537.36","1.29","","null","","You avoided this hive. You earned <b>0 </b>points.","","9","null","0","51","",""
"","html-button-response","22","271992","0.0-3.0-0.9","partial","Female","35","United States of America","","C956836","LB","freqGain","Mozilla/5.0 (Macintosh; Intel Mac OS X 10_14_5) AppleWebKit/537.36 (KHTML, like Gecko) Chrome/81.0.4044.138 Safari/537.36","1.29","","2917","","<img src = 'img/A0-B0-L0-W0.jpg' width = '600'>","1","10","","","","",""
"","html-keyboard-response","23","273994","0.0-3.0-1.9","partial","Female","35","United States of America","","C956836","LB","freqGain","Mozilla/5.0 (Macintosh; Intel Mac OS X 10_14_5) AppleWebKit/537.36 (KHTML, like Gecko) Chrome/81.0.4044.138 Safari/537.36","1.29","","null","","You avoided this hive. You earned <b>0 </b>points.","","10","null","0","51","",""
"","html-button-response","24","276958","0.0-3.0-0.10","partial","Female","35","United States of America","","C956836","LB","freqGain","Mozilla/5.0 (Macintosh; Intel Mac OS X 10_14_5) AppleWebKit/537.36 (KHTML, like Gecko) Chrome/81.0.4044.138 Safari/537.36","1.29","","2962","","<img src = 'img/A0-B1-L1-W1.jpg' width = '600'>","1","11","","","","",""
"","html-keyboard-response","25","278964","0.0-3.0-1.10","partial","Female","35","United States of America","","C956836","LB","freqGain","Mozilla/5.0 (Macintosh; Intel Mac OS X 10_14_5) AppleWebKit/537.36 (KHTML, like Gecko) Chrome/81.0.4044.138 Safari/537.36","1.29","","null","","You avoided this hive. You earned <b>0 </b>points.","","11","null","0","51","",""
"","html-button-response","26","280197","0.0-3.0-0.11","partial","Female","35","United States of America","","C956836","LB","freqGain","Mozilla/5.0 (Macintosh; Intel Mac OS X 10_14_5) AppleWebKit/537.36 (KHTML, like Gecko) Chrome/81.0.4044.138 Safari/537.36","1.29","","1232","","<img src = 'img/A0-B0-L0-W1.jpg' width = '600'>","1","12","","","","",""
"","html-keyboard-response","27","282202","0.0-3.0-1.11","partial","Female","35","United States of America","","C956836","LB","freqGain","Mozilla/5.0 (Macintosh; Intel Mac OS X 10_14_5) AppleWebKit/537.36 (KHTML, like Gecko) Chrome/81.0.4044.138 Safari/537.36","1.29","","null","","You avoided this hive. You earned <b>0 </b>points.","","12","null","0","51","",""
"","html-button-response","28","283730","0.0-3.0-0.12","partial","Female","35","United States of America","","C956836","LB","freqGain","Mozilla/5.0 (Macintosh; Intel Mac OS X 10_14_5) AppleWebKit/537.36 (KHTML, like Gecko) Chrome/81.0.4044.138 Safari/537.36","1.29","","1527","","<img src = 'img/A1-B0-L1-W0.jpg' width = '600'>","0","13","","","","",""
"","html-keyboard-response","29","285736","0.0-3.0-1.12","partial","Female","35","United States of America","","C956836","LB","freqGain","Mozilla/5.0 (Macintosh; Intel Mac OS X 10_14_5) AppleWebKit/537.36 (KHTML, like Gecko) Chrome/81.0.4044.138 Safari/537.36","1.29","","null","","Ouch, you were stung! You lost <b>-1 </b>point.","","13","null","-1","50","",""
"","html-button-response","30","292074","0.0-3.0-0.13","partial","Female","35","United States of America","","C956836","LB","freqGain","Mozilla/5.0 (Macintosh; Intel Mac OS X 10_14_5) AppleWebKit/537.36 (KHTML, like Gecko) Chrome/81.0.4044.138 Safari/537.36","1.29","","6335","","<img src = 'img/A1-B0-L1-W1.jpg' width = '600'>","0","14","","","","",""
"","html-keyboard-response","31","294079","0.0-3.0-1.13","partial","Female","35","United States of America","","C956836","LB","freqGain","Mozilla/5.0 (Macintosh; Intel Mac OS X 10_14_5) AppleWebKit/537.36 (KHTML, like Gecko) Chrome/81.0.4044.138 Safari/537.36","1.29","","null","","Ouch, you were stung! You lost <b>-1 </b>point.","","14","null","-1","49","",""
"","html-button-response","32","295660","0.0-3.0-0.14","partial","Female","35","United States of America","","C956836","LB","freqGain","Mozilla/5.0 (Macintosh; Intel Mac OS X 10_14_5) AppleWebKit/537.36 (KHTML, like Gecko) Chrome/81.0.4044.138 Safari/537.36","1.29","","1579","","<img src = 'img/A1-B0-L0-W0.jpg' width = '600'>","0","15","","","","",""
"","html-keyboard-response","33","297662","0.0-3.0-1.14","partial","Female","35","United States of America","","C956836","LB","freqGain","Mozilla/5.0 (Macintosh; Intel Mac OS X 10_14_5) AppleWebKit/537.36 (KHTML, like Gecko) Chrome/81.0.4044.138 Safari/537.36","1.29","","null","","Ouch, you were stung! You lost <b>-1 </b>point.","","15","null","-1","48","",""
"","html-button-response","34","301012","0.0-3.0-0.15","partial","Female","35","United States of America","","C956836","LB","freqGain","Mozilla/5.0 (Macintosh; Intel Mac OS X 10_14_5) AppleWebKit/537.36 (KHTML, like Gecko) Chrome/81.0.4044.138 Safari/537.36","1.29","","3349","","<img src = 'img/A1-B1-L0-W1.jpg' width = '600'>","0","16","","","","",""
"","html-keyboard-response","35","303018","0.0-3.0-1.15","partial","Female","35","United States of America","","C956836","LB","freqGain","Mozilla/5.0 (Macintosh; Intel Mac OS X 10_14_5) AppleWebKit/537.36 (KHTML, like Gecko) Chrome/81.0.4044.138 Safari/537.36","1.29","","null","","Ouch, you were stung! You lost <b>-1 </b>point.","","16","null","-1","47","",""
"","html-button-response","36","305643","0.0-3.0-0.16","partial","Female","35","United States of America","","C956836","LB","freqGain","Mozilla/5.0 (Macintosh; Intel Mac OS X 10_14_5) AppleWebKit/537.36 (KHTML, like Gecko) Chrome/81.0.4044.138 Safari/537.36","1.29","","2622","","<img src = 'img/A1-B1-L1-W1.jpg' width = '600'>","0","17","","","","",""
"","html-keyboard-response","37","307649","0.0-3.0-1.16","partial","Female","35","United States of America","","C956836","LB","freqGain","Mozilla/5.0 (Macintosh; Intel Mac OS X 10_14_5) AppleWebKit/537.36 (KHTML, like Gecko) Chrome/81.0.4044.138 Safari/537.36","1.29","","null","","You successfully harvested honey! You earned <b>3 </b>points.","","17","null","3","50","",""
"","html-button-response","38","310526","0.0-3.0-0.17","partial","Female","35","United States of America","","C956836","LB","freqGain","Mozilla/5.0 (Macintosh; Intel Mac OS X 10_14_5) AppleWebKit/537.36 (KHTML, like Gecko) Chrome/81.0.4044.138 Safari/537.36","1.29","","2875","","<img src = 'img/A0-B0-L1-W0.jpg' width = '600'>","0","18","","","","",""
"","html-keyboard-response","39","312529","0.0-3.0-1.17","partial","Female","35","United States of America","","C956836","LB","freqGain","Mozilla/5.0 (Macintosh; Intel Mac OS X 10_14_5) AppleWebKit/537.36 (KHTML, like Gecko) Chrome/81.0.4044.138 Safari/537.36","1.29","","null","","Ouch, you were stung! You lost <b>-1 </b>point.","","18","null","-1","49","",""
"","html-button-response","40","321338","0.0-3.0-0.18","partial","Female","35","United States of America","","C956836","LB","freqGain","Mozilla/5.0 (Macintosh; Intel Mac OS X 10_14_5) AppleWebKit/537.36 (KHTML, like Gecko) Chrome/81.0.4044.138 Safari/537.36","1.29","","8807","","<img src = 'img/A0-B1-L0-W0.jpg' width = '600'>","0","19","","","","",""
"","html-keyboard-response","41","323340","0.0-3.0-1.18","partial","Female","35","United States of America","","C956836","LB","freqGain","Mozilla/5.0 (Macintosh; Intel Mac OS X 10_14_5) AppleWebKit/537.36 (KHTML, like Gecko) Chrome/81.0.4044.138 Safari/537.36","1.29","","null","","Ouch, you were stung! You lost <b>-1 </b>point.","","19","null","-1","48","",""
"","html-button-response","42","326946","0.0-3.0-0.19","partial","Female","35","United States of America","","C956836","LB","freqGain","Mozilla/5.0 (Macintosh; Intel Mac OS X 10_14_5) AppleWebKit/537.36 (KHTML, like Gecko) Chrome/81.0.4044.138 Safari/537.36","1.29","","3605","","<img src = 'img/A0-B0-L0-W1.jpg' width = '600'>","0","20","","","","",""
"","html-keyboard-response","43","328947","0.0-3.0-1.19","partial","Female","35","United States of America","","C956836","LB","freqGain","Mozilla/5.0 (Macintosh; Intel Mac OS X 10_14_5) AppleWebKit/537.36 (KHTML, like Gecko) Chrome/81.0.4044.138 Safari/537.36","1.29","","null","","Ouch, you were stung! You lost <b>-1 </b>point.","","20","null","-1","47","",""
"","html-button-response","44","330905","0.0-3.0-0.20","partial","Female","35","United States of America","","C956836","LB","freqGain","Mozilla/5.0 (Macintosh; Intel Mac OS X 10_14_5) AppleWebKit/537.36 (KHTML, like Gecko) Chrome/81.0.4044.138 Safari/537.36","1.29","","1956","","<img src = 'img/A1-B1-L1-W0.jpg' width = '600'>","0","21","","","","",""
"","html-keyboard-response","45","332910","0.0-3.0-1.20","partial","Female","35","United States of America","","C956836","LB","freqGain","Mozilla/5.0 (Macintosh; Intel Mac OS X 10_14_5) AppleWebKit/537.36 (KHTML, like Gecko) Chrome/81.0.4044.138 Safari/537.36","1.29","","null","","You successfully harvested honey! You earned <b>3 </b>points.","","21","null","3","50","",""
"","html-button-response","46","337108","0.0-3.0-0.21","partial","Female","35","United States of America","","C956836","LB","freqGain","Mozilla/5.0 (Macintosh; Intel Mac OS X 10_14_5) AppleWebKit/537.36 (KHTML, like Gecko) Chrome/81.0.4044.138 Safari/537.36","1.29","","4195","","<img src = 'img/A1-B1-L0-W1.jpg' width = '600'>","0","22","","","","",""
"","html-keyboard-response","47","339114","0.0-3.0-1.21","partial","Female","35","United States of America","","C956836","LB","freqGain","Mozilla/5.0 (Macintosh; Intel Mac OS X 10_14_5) AppleWebKit/537.36 (KHTML, like Gecko) Chrome/81.0.4044.138 Safari/537.36","1.29","","null","","Ouch, you were stung! You lost <b>-1 </b>point.","","22","null","-1","49","",""
"","html-button-response","48","341887","0.0-3.0-0.22","partial","Female","35","United States of America","","C956836","LB","freqGain","Mozilla/5.0 (Macintosh; Intel Mac OS X 10_14_5) AppleWebKit/537.36 (KHTML, like Gecko) Chrome/81.0.4044.138 Safari/537.36","1.29","","2770","","<img src = 'img/A0-B0-L0-W0.jpg' width = '600'>","0","23","","","","",""
"","html-keyboard-response","49","343889","0.0-3.0-1.22","partial","Female","35","United States of America","","C956836","LB","freqGain","Mozilla/5.0 (Macintosh; Intel Mac OS X 10_14_5) AppleWebKit/537.36 (KHTML, like Gecko) Chrome/81.0.4044.138 Safari/537.36","1.29","","null","","Ouch, you were stung! You lost <b>-1 </b>point.","","23","null","-1","48","",""
"","html-button-response","50","345880","0.0-3.0-0.23","partial","Female","35","United States of America","","C956836","LB","freqGain","Mozilla/5.0 (Macintosh; Intel Mac OS X 10_14_5) AppleWebKit/537.36 (KHTML, like Gecko) Chrome/81.0.4044.138 Safari/537.36","1.29","","1990","","<img src = 'img/A1-B0-L0-W1.jpg' width = '600'>","1","24","","","","",""
"","html-keyboard-response","51","347883","0.0-3.0-1.23","partial","Female","35","United States of America","","C956836","LB","freqGain","Mozilla/5.0 (Macintosh; Intel Mac OS X 10_14_5) AppleWebKit/537.36 (KHTML, like Gecko) Chrome/81.0.4044.138 Safari/537.36","1.29","","null","","You avoided this hive. You earned <b>0 </b>points.","","24","null","0","48","",""
"","html-button-response","52","351260","0.0-3.0-0.24","partial","Female","35","United States of America","","C956836","LB","freqGain","Mozilla/5.0 (Macintosh; Intel Mac OS X 10_14_5) AppleWebKit/537.36 (KHTML, like Gecko) Chrome/81.0.4044.138 Safari/537.36","1.29","","3376","","<img src = 'img/A0-B1-L1-W1.jpg' width = '600'>","0","25","","","","",""
"","html-keyboard-response","53","353262","0.0-3.0-1.24","partial","Female","35","United States of America","","C956836","LB","freqGain","Mozilla/5.0 (Macintosh; Intel Mac OS X 10_14_5) AppleWebKit/537.36 (KHTML, like Gecko) Chrome/81.0.4044.138 Safari/537.36","1.29","","null","","You successfully harvested honey! You earned <b>3 </b>points.","","25","null","3","51","",""
"","html-button-response","54","358113","0.0-3.0-0.25","partial","Female","35","United States of America","","C956836","LB","freqGain","Mozilla/5.0 (Macintosh; Intel Mac OS X 10_14_5) AppleWebKit/537.36 (KHTML, like Gecko) Chrome/81.0.4044.138 Safari/537.36","1.29","","4850","","<img src = 'img/A1-B0-L1-W0.jpg' width = '600'>","0","26","","","","",""
"","html-keyboard-response","55","360118","0.0-3.0-1.25","partial","Female","35","United States of America","","C956836","LB","freqGain","Mozilla/5.0 (Macintosh; Intel Mac OS X 10_14_5) AppleWebKit/537.36 (KHTML, like Gecko) Chrome/81.0.4044.138 Safari/537.36","1.29","","null","","Ouch, you were stung! You lost <b>-1 </b>point.","","26","null","-1","50","",""
"","html-button-response","56","365833","0.0-3.0-0.26","partial","Female","35","United States of America","","C956836","LB","freqGain","Mozilla/5.0 (Macintosh; Intel Mac OS X 10_14_5) AppleWebKit/537.36 (KHTML, like Gecko) Chrome/81.0.4044.138 Safari/537.36","1.29","","5714","","<img src = 'img/A1-B0-L1-W1.jpg' width = '600'>","0","27","","","","",""
"","html-keyboard-response","57","367835","0.0-3.0-1.26","partial","Female","35","United States of America","","C956836","LB","freqGain","Mozilla/5.0 (Macintosh; Intel Mac OS X 10_14_5) AppleWebKit/537.36 (KHTML, like Gecko) Chrome/81.0.4044.138 Safari/537.36","1.29","","null","","Ouch, you were stung! You lost <b>-1 </b>point.","","27","null","-1","49","",""
"","html-button-response","58","369488","0.0-3.0-0.27","partial","Female","35","United States of America","","C956836","LB","freqGain","Mozilla/5.0 (Macintosh; Intel Mac OS X 10_14_5) AppleWebKit/537.36 (KHTML, like Gecko) Chrome/81.0.4044.138 Safari/537.36","1.29","","1652","","<img src = 'img/A0-B1-L0-W1.jpg' width = '600'>","0","28","","","","",""
"","html-keyboard-response","59","371490","0.0-3.0-1.27","partial","Female","35","United States of America","","C956836","LB","freqGain","Mozilla/5.0 (Macintosh; Intel Mac OS X 10_14_5) AppleWebKit/537.36 (KHTML, like Gecko) Chrome/81.0.4044.138 Safari/537.36","1.29","","null","","Ouch, you were stung! You lost <b>-1 </b>point.","","28","null","-1","48","",""
"","html-button-response","60","375821","0.0-3.0-0.28","partial","Female","35","United States of America","","C956836","LB","freqGain","Mozilla/5.0 (Macintosh; Intel Mac OS X 10_14_5) AppleWebKit/537.36 (KHTML, like Gecko) Chrome/81.0.4044.138 Safari/537.36","1.29","","4330","","<img src = 'img/A0-B0-L1-W1.jpg' width = '600'>","0","29","","","","",""
"","html-keyboard-response","61","377825","0.0-3.0-1.28","partial","Female","35","United States of America","","C956836","LB","freqGain","Mozilla/5.0 (Macintosh; Intel Mac OS X 10_14_5) AppleWebKit/537.36 (KHTML, like Gecko) Chrome/81.0.4044.138 Safari/537.36","1.29","","null","","Ouch, you were stung! You lost <b>-1 </b>point.","","29","null","-1","47","",""
"","html-button-response","62","382708","0.0-3.0-0.29","partial","Female","35","United States of America","","C956836","LB","freqGain","Mozilla/5.0 (Macintosh; Intel Mac OS X 10_14_5) AppleWebKit/537.36 (KHTML, like Gecko) Chrome/81.0.4044.138 Safari/537.36","1.29","","4883","","<img src = 'img/A1-B0-L0-W0.jpg' width = '600'>","0","30","","","","",""
"","html-keyboard-response","63","384711","0.0-3.0-1.29","partial","Female","35","United States of America","","C956836","LB","freqGain","Mozilla/5.0 (Macintosh; Intel Mac OS X 10_14_5) AppleWebKit/537.36 (KHTML, like Gecko) Chrome/81.0.4044.138 Safari/537.36","1.29","","null","","Ouch, you were stung! You lost <b>-1 </b>point.","","30","null","-1","46","",""
"","html-button-response","64","389885","0.0-3.0-0.30","partial","Female","35","United States of America","","C956836","LB","freqGain","Mozilla/5.0 (Macintosh; Intel Mac OS X 10_14_5) AppleWebKit/537.36 (KHTML, like Gecko) Chrome/81.0.4044.138 Safari/537.36","1.29","","5172","","<img src = 'img/A0-B1-L1-W0.jpg' width = '600'>","0","31","","","","",""
"","html-keyboard-response","65","391887","0.0-3.0-1.30","partial","Female","35","United States of America","","C956836","LB","freqGain","Mozilla/5.0 (Macintosh; Intel Mac OS X 10_14_5) AppleWebKit/537.36 (KHTML, like Gecko) Chrome/81.0.4044.138 Safari/537.36","1.29","","null","","You successfully harvested honey! You earned <b>3 </b>points.","","31","null","3","49","",""
"","html-button-response","66","393523","0.0-3.0-0.31","partial","Female","35","United States of America","","C956836","LB","freqGain","Mozilla/5.0 (Macintosh; Intel Mac OS X 10_14_5) AppleWebKit/537.36 (KHTML, like Gecko) Chrome/81.0.4044.138 Safari/537.36","1.29","","1635","","<img src = 'img/A1-B1-L0-W0.jpg' width = '600'>","0","32","","","","",""
"","html-keyboard-response","67","395524","0.0-3.0-1.31","partial","Female","35","United States of America","","C956836","LB","freqGain","Mozilla/5.0 (Macintosh; Intel Mac OS X 10_14_5) AppleWebKit/537.36 (KHTML, like Gecko) Chrome/81.0.4044.138 Safari/537.36","1.29","","null","","Ouch, you were stung! You lost <b>-1 </b>point.","","32","null","-1","48","",""
"","html-button-response","68","402300","0.0-3.0-0.32","partial","Female","35","United States of America","","C956836","LB","freqGain","Mozilla/5.0 (Macintosh; Intel Mac OS X 10_14_5) AppleWebKit/537.36 (KHTML, like Gecko) Chrome/81.0.4044.138 Safari/537.36","1.29","","6775","","<img src = 'img/A1-B0-L1-W1.jpg' width = '600'>","0","33","","","","",""
"","html-keyboard-response","69","404307","0.0-3.0-1.32","partial","Female","35","United States of America","","C956836","LB","freqGain","Mozilla/5.0 (Macintosh; Intel Mac OS X 10_14_5) AppleWebKit/537.36 (KHTML, like Gecko) Chrome/81.0.4044.138 Safari/537.36","1.29","","null","","Ouch, you were stung! You lost <b>-1 </b>point.","","33","null","-1","47","",""
"","html-button-response","70","410926","0.0-3.0-0.33","partial","Female","35","United States of America","","C956836","LB","freqGain","Mozilla/5.0 (Macintosh; Intel Mac OS X 10_14_5) AppleWebKit/537.36 (KHTML, like Gecko) Chrome/81.0.4044.138 Safari/537.36","1.29","","6616","","<img src = 'img/A0-B0-L1-W1.jpg' width = '600'>","0","34","","","","",""
"","html-keyboard-response","71","412932","0.0-3.0-1.33","partial","Female","35","United States of America","","C956836","LB","freqGain","Mozilla/5.0 (Macintosh; Intel Mac OS X 10_14_5) AppleWebKit/537.36 (KHTML, like Gecko) Chrome/81.0.4044.138 Safari/537.36","1.29","","null","","Ouch, you were stung! You lost <b>-1 </b>point.","","34","null","-1","46","",""
"","html-button-response","72","417005","0.0-3.0-0.34","partial","Female","35","United States of America","","C956836","LB","freqGain","Mozilla/5.0 (Macintosh; Intel Mac OS X 10_14_5) AppleWebKit/537.36 (KHTML, like Gecko) Chrome/81.0.4044.138 Safari/537.36","1.29","","4072","","<img src = 'img/A1-B1-L0-W1.jpg' width = '600'>","0","35","","","","",""
"","html-keyboard-response","73","419012","0.0-3.0-1.34","partial","Female","35","United States of America","","C956836","LB","freqGain","Mozilla/5.0 (Macintosh; Intel Mac OS X 10_14_5) AppleWebKit/537.36 (KHTML, like Gecko) Chrome/81.0.4044.138 Safari/537.36","1.29","","null","","Ouch, you were stung! You lost <b>-1 </b>point.","","35","null","-1","45","",""
"","html-button-response","74","424909","0.0-3.0-0.35","partial","Female","35","United States of America","","C956836","LB","freqGain","Mozilla/5.0 (Macintosh; Intel Mac OS X 10_14_5) AppleWebKit/537.36 (KHTML, like Gecko) Chrome/81.0.4044.138 Safari/537.36","1.29","","5895","","<img src = 'img/A1-B0-L1-W0.jpg' width = '600'>","0","36","","","","",""
"","html-keyboard-response","75","426910","0.0-3.0-1.35","partial","Female","35","United States of America","","C956836","LB","freqGain","Mozilla/5.0 (Macintosh; Intel Mac OS X 10_14_5) AppleWebKit/537.36 (KHTML, like Gecko) Chrome/81.0.4044.138 Safari/537.36","1.29","","null","","Ouch, you were stung! You lost <b>-1 </b>point.","","36","null","-1","44","",""
"","html-button-response","76","433926","0.0-3.0-0.36","partial","Female","35","United States of America","","C956836","LB","freqGain","Mozilla/5.0 (Macintosh; Intel Mac OS X 10_14_5) AppleWebKit/537.36 (KHTML, like Gecko) Chrome/81.0.4044.138 Safari/537.36","1.29","","7015","","<img src = 'img/A0-B0-L0-W1.jpg' width = '600'>","0","37","","","","",""
"","html-keyboard-response","77","435929","0.0-3.0-1.36","partial","Female","35","United States of America","","C956836","LB","freqGain","Mozilla/5.0 (Macintosh; Intel Mac OS X 10_14_5) AppleWebKit/537.36 (KHTML, like Gecko) Chrome/81.0.4044.138 Safari/537.36","1.29","","null","","Ouch, you were stung! You lost <b>-1 </b>point.","","37","null","-1","43","",""
"","html-button-response","78","439119","0.0-3.0-0.37","partial","Female","35","United States of America","","C956836","LB","freqGain","Mozilla/5.0 (Macintosh; Intel Mac OS X 10_14_5) AppleWebKit/537.36 (KHTML, like Gecko) Chrome/81.0.4044.138 Safari/537.36","1.29","","3189","","<img src = 'img/A1-B1-L1-W0.jpg' width = '600'>","0","38","","","","",""
"","html-keyboard-response","79","441125","0.0-3.0-1.37","partial","Female","35","United States of America","","C956836","LB","freqGain","Mozilla/5.0 (Macintosh; Intel Mac OS X 10_14_5) AppleWebKit/537.36 (KHTML, like Gecko) Chrome/81.0.4044.138 Safari/537.36","1.29","","null","","You successfully harvested honey! You earned <b>3 </b>points.","","38","null","3","46","",""
"","html-button-response","80","442526","0.0-3.0-0.38","partial","Female","35","United States of America","","C956836","LB","freqGain","Mozilla/5.0 (Macintosh; Intel Mac OS X 10_14_5) AppleWebKit/537.36 (KHTML, like Gecko) Chrome/81.0.4044.138 Safari/537.36","1.29","","1399","","<img src = 'img/A0-B1-L1-W1.jpg' width = '600'>","0","39","","","","",""
"","html-keyboard-response","81","444532","0.0-3.0-1.38","partial","Female","35","United States of America","","C956836","LB","freqGain","Mozilla/5.0 (Macintosh; Intel Mac OS X 10_14_5) AppleWebKit/537.36 (KHTML, like Gecko) Chrome/81.0.4044.138 Safari/537.36","1.29","","null","","You successfully harvested honey! You earned <b>3 </b>points.","","39","null","3","49","",""
"","html-button-response","82","446058","0.0-3.0-0.39","partial","Female","35","United States of America","","C956836","LB","freqGain","Mozilla/5.0 (Macintosh; Intel Mac OS X 10_14_5) AppleWebKit/537.36 (KHTML, like Gecko) Chrome/81.0.4044.138 Safari/537.36","1.29","","1525","","<img src = 'img/A1-B0-L0-W0.jpg' width = '600'>","1","40","","","","",""
"","html-keyboard-response","83","448065","0.0-3.0-1.39","partial","Female","35","United States of America","","C956836","LB","freqGain","Mozilla/5.0 (Macintosh; Intel Mac OS X 10_14_5) AppleWebKit/537.36 (KHTML, like Gecko) Chrome/81.0.4044.138 Safari/537.36","1.29","","null","","You avoided this hive. You earned <b>0 </b>points.","","40","null","0","49","",""
"","html-button-response","84","453416","0.0-3.0-0.40","partial","Female","35","United States of America","","C956836","LB","freqGain","Mozilla/5.0 (Macintosh; Intel Mac OS X 10_14_5) AppleWebKit/537.36 (KHTML, like Gecko) Chrome/81.0.4044.138 Safari/537.36","1.29","","5349","","<img src = 'img/A0-B0-L1-W0.jpg' width = '600'>","0","41","","","","",""
"","html-keyboard-response","85","455418","0.0-3.0-1.40","partial","Female","35","United States of America","","C956836","LB","freqGain","Mozilla/5.0 (Macintosh; Intel Mac OS X 10_14_5) AppleWebKit/537.36 (KHTML, like Gecko) Chrome/81.0.4044.138 Safari/537.36","1.29","","null","","Ouch, you were stung! You lost <b>-1 </b>point.","","41","null","-1","48","",""
"","html-button-response","86","459557","0.0-3.0-0.41","partial","Female","35","United States of America","","C956836","LB","freqGain","Mozilla/5.0 (Macintosh; Intel Mac OS X 10_14_5) AppleWebKit/537.36 (KHTML, like Gecko) Chrome/81.0.4044.138 Safari/537.36","1.29","","4138","","<img src = 'img/A0-B0-L0-W0.jpg' width = '600'>","1","42","","","","",""
"","html-keyboard-response","87","461562","0.0-3.0-1.41","partial","Female","35","United States of America","","C956836","LB","freqGain","Mozilla/5.0 (Macintosh; Intel Mac OS X 10_14_5) AppleWebKit/537.36 (KHTML, like Gecko) Chrome/81.0.4044.138 Safari/537.36","1.29","","null","","You avoided this hive. You earned <b>0 </b>points.","","42","null","0","48","",""
"","html-button-response","88","462765","0.0-3.0-0.42","partial","Female","35","United States of America","","C956836","LB","freqGain","Mozilla/5.0 (Macintosh; Intel Mac OS X 10_14_5) AppleWebKit/537.36 (KHTML, like Gecko) Chrome/81.0.4044.138 Safari/537.36","1.29","","1200","","<img src = 'img/A1-B0-L0-W1.jpg' width = '600'>","1","43","","","","",""
"","html-keyboard-response","89","464768","0.0-3.0-1.42","partial","Female","35","United States of America","","C956836","LB","freqGain","Mozilla/5.0 (Macintosh; Intel Mac OS X 10_14_5) AppleWebKit/537.36 (KHTML, like Gecko) Chrome/81.0.4044.138 Safari/537.36","1.29","","null","","You avoided this hive. You earned <b>0 </b>points.","","43","null","0","48","",""
"","html-button-response","90","467323","0.0-3.0-0.43","partial","Female","35","United States of America","","C956836","LB","freqGain","Mozilla/5.0 (Macintosh; Intel Mac OS X 10_14_5) AppleWebKit/537.36 (KHTML, like Gecko) Chrome/81.0.4044.138 Safari/537.36","1.29","","2555","","<img src = 'img/A1-B1-L0-W0.jpg' width = '600'>","0","44","","","","",""
"","html-keyboard-response","91","469326","0.0-3.0-1.43","partial","Female","35","United States of America","","C956836","LB","freqGain","Mozilla/5.0 (Macintosh; Intel Mac OS X 10_14_5) AppleWebKit/537.36 (KHTML, like Gecko) Chrome/81.0.4044.138 Safari/537.36","1.29","","null","","Ouch, you were stung! You lost <b>-1 </b>point.","","44","null","-1","47","",""
"","html-button-response","92","471816","0.0-3.0-0.44","partial","Female","35","United States of America","","C956836","LB","freqGain","Mozilla/5.0 (Macintosh; Intel Mac OS X 10_14_5) AppleWebKit/537.36 (KHTML, like Gecko) Chrome/81.0.4044.138 Safari/537.36","1.29","","2488","","<img src = 'img/A0-B1-L0-W1.jpg' width = '600'>","0","45","","","","",""
"","html-keyboard-response","93","473818","0.0-3.0-1.44","partial","Female","35","United States of America","","C956836","LB","freqGain","Mozilla/5.0 (Macintosh; Intel Mac OS X 10_14_5) AppleWebKit/537.36 (KHTML, like Gecko) Chrome/81.0.4044.138 Safari/537.36","1.29","","null","","Ouch, you were stung! You lost <b>-1 </b>point.","","45","null","-1","46","",""
"","html-button-response","94","475276","0.0-3.0-0.45","partial","Female","35","United States of America","","C956836","LB","freqGain","Mozilla/5.0 (Macintosh; Intel Mac OS X 10_14_5) AppleWebKit/537.36 (KHTML, like Gecko) Chrome/81.0.4044.138 Safari/537.36","1.29","","1456","","<img src = 'img/A1-B1-L1-W1.jpg' width = '600'>","0","46","","","","",""
"","html-keyboard-response","95","477277","0.0-3.0-1.45","partial","Female","35","United States of America","","C956836","LB","freqGain","Mozilla/5.0 (Macintosh; Intel Mac OS X 10_14_5) AppleWebKit/537.36 (KHTML, like Gecko) Chrome/81.0.4044.138 Safari/537.36","1.29","","null","","You successfully harvested honey! You earned <b>3 </b>points.","","46","null","3","49","",""
"","html-button-response","96","478934","0.0-3.0-0.46","partial","Female","35","United States of America","","C956836","LB","freqGain","Mozilla/5.0 (Macintosh; Intel Mac OS X 10_14_5) AppleWebKit/537.36 (KHTML, like Gecko) Chrome/81.0.4044.138 Safari/537.36","1.29","","1657","","<img src = 'img/A0-B1-L0-W0.jpg' width = '600'>","1","47","","","","",""
"","html-keyboard-response","97","480940","0.0-3.0-1.46","partial","Female","35","United States of America","","C956836","LB","freqGain","Mozilla/5.0 (Macintosh; Intel Mac OS X 10_14_5) AppleWebKit/537.36 (KHTML, like Gecko) Chrome/81.0.4044.138 Safari/537.36","1.29","","null","","You avoided this hive. You earned <b>0 </b>points.","","47","null","0","49","",""
"","html-button-response","98","482308","0.0-3.0-0.47","partial","Female","35","United States of America","","C956836","LB","freqGain","Mozilla/5.0 (Macintosh; Intel Mac OS X 10_14_5) AppleWebKit/537.36 (KHTML, like Gecko) Chrome/81.0.4044.138 Safari/537.36","1.29","","1367","","<img src = 'img/A0-B1-L1-W0.jpg' width = '600'>","0","48","","","","",""
"","html-keyboard-response","99","484313","0.0-3.0-1.47","partial","Female","35","United States of America","","C956836","LB","freqGain","Mozilla/5.0 (Macintosh; Intel Mac OS X 10_14_5) AppleWebKit/537.36 (KHTML, like Gecko) Chrome/81.0.4044.138 Safari/537.36","1.29","","null","","You successfully harvested honey! You earned <b>3 </b>points.","","48","null","3","52","",""
"","html-button-response","100","485613","0.0-3.0-0.48","partial","Female","35","United States of America","","C956836","LB","freqGain","Mozilla/5.0 (Macintosh; Intel Mac OS X 10_14_5) AppleWebKit/537.36 (KHTML, like Gecko) Chrome/81.0.4044.138 Safari/537.36","1.29","","1299","","<img src = 'img/A1-B0-L1-W1.jpg' width = '600'>","1","49","","","","",""
"","html-keyboard-response","101","487615","0.0-3.0-1.48","partial","Female","35","United States of America","","C956836","LB","freqGain","Mozilla/5.0 (Macintosh; Intel Mac OS X 10_14_5) AppleWebKit/537.36 (KHTML, like Gecko) Chrome/81.0.4044.138 Safari/537.36","1.29","","null","","You avoided this hive. You earned <b>0 </b>points.","","49","null","0","52","",""
"","html-button-response","102","488682","0.0-3.0-0.49","partial","Female","35","United States of America","","C956836","LB","freqGain","Mozilla/5.0 (Macintosh; Intel Mac OS X 10_14_5) AppleWebKit/537.36 (KHTML, like Gecko) Chrome/81.0.4044.138 Safari/537.36","1.29","","1066","","<img src = 'img/A1-B1-L0-W1.jpg' width = '600'>","1","50","","","","",""
"","html-keyboard-response","103","490684","0.0-3.0-1.49","partial","Female","35","United States of America","","C956836","LB","freqGain","Mozilla/5.0 (Macintosh; Intel Mac OS X 10_14_5) AppleWebKit/537.36 (KHTML, like Gecko) Chrome/81.0.4044.138 Safari/537.36","1.29","","null","","You avoided this hive. You earned <b>0 </b>points.","","50","null","0","52","",""
"","html-button-response","104","492207","0.0-3.0-0.50","partial","Female","35","United States of America","","C956836","LB","freqGain","Mozilla/5.0 (Macintosh; Intel Mac OS X 10_14_5) AppleWebKit/537.36 (KHTML, like Gecko) Chrome/81.0.4044.138 Safari/537.36","1.29","","1522","","<img src = 'img/A0-B1-L1-W0.jpg' width = '600'>","0","51","","","","",""
"","html-keyboard-response","105","494209","0.0-3.0-1.50","partial","Female","35","United States of America","","C956836","LB","freqGain","Mozilla/5.0 (Macintosh; Intel Mac OS X 10_14_5) AppleWebKit/537.36 (KHTML, like Gecko) Chrome/81.0.4044.138 Safari/537.36","1.29","","null","","You successfully harvested honey! You earned <b>3 </b>points.","","51","null","3","55","",""
"","html-button-response","106","495695","0.0-3.0-0.51","partial","Female","35","United States of America","","C956836","LB","freqGain","Mozilla/5.0 (Macintosh; Intel Mac OS X 10_14_5) AppleWebKit/537.36 (KHTML, like Gecko) Chrome/81.0.4044.138 Safari/537.36","1.29","","1485","","<img src = 'img/A1-B1-L1-W0.jpg' width = '600'>","0","52","","","","",""
"","html-keyboard-response","107","497698","0.0-3.0-1.51","partial","Female","35","United States of America","","C956836","LB","freqGain","Mozilla/5.0 (Macintosh; Intel Mac OS X 10_14_5) AppleWebKit/537.36 (KHTML, like Gecko) Chrome/81.0.4044.138 Safari/537.36","1.29","","null","","You successfully harvested honey! You earned <b>3 </b>points.","","52","null","3","58","",""
"","html-button-response","108","499215","0.0-3.0-0.52","partial","Female","35","United States of America","","C956836","LB","freqGain","Mozilla/5.0 (Macintosh; Intel Mac OS X 10_14_5) AppleWebKit/537.36 (KHTML, like Gecko) Chrome/81.0.4044.138 Safari/537.36","1.29","","1516","","<img src = 'img/A1-B0-L0-W0.jpg' width = '600'>","1","53","","","","",""
"","html-keyboard-response","109","501221","0.0-3.0-1.52","partial","Female","35","United States of America","","C956836","LB","freqGain","Mozilla/5.0 (Macintosh; Intel Mac OS X 10_14_5) AppleWebKit/537.36 (KHTML, like Gecko) Chrome/81.0.4044.138 Safari/537.36","1.29","","null","","You avoided this hive. You earned <b>0 </b>points.","","53","null","0","58","",""
"","html-button-response","110","503513","0.0-3.0-0.53","partial","Female","35","United States of America","","C956836","LB","freqGain","Mozilla/5.0 (Macintosh; Intel Mac OS X 10_14_5) AppleWebKit/537.36 (KHTML, like Gecko) Chrome/81.0.4044.138 Safari/537.36","1.29","","2291","","<img src = 'img/A0-B0-L1-W0.jpg' width = '600'>","1","54","","","","",""
"","html-keyboard-response","111","505519","0.0-3.0-1.53","partial","Female","35","United States of America","","C956836","LB","freqGain","Mozilla/5.0 (Macintosh; Intel Mac OS X 10_14_5) AppleWebKit/537.36 (KHTML, like Gecko) Chrome/81.0.4044.138 Safari/537.36","1.29","","null","","You avoided this hive. You earned <b>0 </b>points.","","54","null","0","58","",""
"","html-button-response","112","506557","0.0-3.0-0.54","partial","Female","35","United States of America","","C956836","LB","freqGain","Mozilla/5.0 (Macintosh; Intel Mac OS X 10_14_5) AppleWebKit/537.36 (KHTML, like Gecko) Chrome/81.0.4044.138 Safari/537.36","1.29","","1035","","<img src = 'img/A0-B0-L0-W0.jpg' width = '600'>","1","55","","","","",""
"","html-keyboard-response","113","508558","0.0-3.0-1.54","partial","Female","35","United States of America","","C956836","LB","freqGain","Mozilla/5.0 (Macintosh; Intel Mac OS X 10_14_5) AppleWebKit/537.36 (KHTML, like Gecko) Chrome/81.0.4044.138 Safari/537.36","1.29","","null","","You avoided this hive. You earned <b>0 </b>points.","","55","null","0","58","",""
"","html-button-response","114","509553","0.0-3.0-0.55","partial","Female","35","United States of America","","C956836","LB","freqGain","Mozilla/5.0 (Macintosh; Intel Mac OS X 10_14_5) AppleWebKit/537.36 (KHTML, like Gecko) Chrome/81.0.4044.138 Safari/537.36","1.29","","994","","<img src = 'img/A1-B0-L0-W1.jpg' width = '600'>","1","56","","","","",""
"","html-keyboard-response","115","511560","0.0-3.0-1.55","partial","Female","35","United States of America","","C956836","LB","freqGain","Mozilla/5.0 (Macintosh; Intel Mac OS X 10_14_5) AppleWebKit/537.36 (KHTML, like Gecko) Chrome/81.0.4044.138 Safari/537.36","1.29","","null","","You avoided this hive. You earned <b>0 </b>points.","","56","null","0","58","",""
"","html-button-response","116","513534","0.0-3.0-0.56","partial","Female","35","United States of America","","C956836","LB","freqGain","Mozilla/5.0 (Macintosh; Intel Mac OS X 10_14_5) AppleWebKit/537.36 (KHTML, like Gecko) Chrome/81.0.4044.138 Safari/537.36","1.29","","1972","","<img src = 'img/A0-B0-L1-W1.jpg' width = '600'>","1","57","","","","",""
"","html-keyboard-response","117","515540","0.0-3.0-1.56","partial","Female","35","United States of America","","C956836","LB","freqGain","Mozilla/5.0 (Macintosh; Intel Mac OS X 10_14_5) AppleWebKit/537.36 (KHTML, like Gecko) Chrome/81.0.4044.138 Safari/537.36","1.29","","null","","You avoided this hive. You earned <b>0 </b>points.","","57","null","0","58","",""
"","html-button-response","118","517864","0.0-3.0-0.57","partial","Female","35","United States of America","","C956836","LB","freqGain","Mozilla/5.0 (Macintosh; Intel Mac OS X 10_14_5) AppleWebKit/537.36 (KHTML, like Gecko) Chrome/81.0.4044.138 Safari/537.36","1.29","","2322","","<img src = 'img/A1-B0-L1-W0.jpg' width = '600'>","1","58","","","","",""
"","html-keyboard-response","119","519869","0.0-3.0-1.57","partial","Female","35","United States of America","","C956836","LB","freqGain","Mozilla/5.0 (Macintosh; Intel Mac OS X 10_14_5) AppleWebKit/537.36 (KHTML, like Gecko) Chrome/81.0.4044.138 Safari/537.36","1.29","","null","","You avoided this hive. You earned <b>0 </b>points.","","58","null","0","58","",""
"","html-button-response","120","521259","0.0-3.0-0.58","partial","Female","35","United States of America","","C956836","LB","freqGain","Mozilla/5.0 (Macintosh; Intel Mac OS X 10_14_5) AppleWebKit/537.36 (KHTML, like Gecko) Chrome/81.0.4044.138 Safari/537.36","1.29","","1387","","<img src = 'img/A1-B1-L1-W1.jpg' width = '600'>","0","59","","","","",""
"","html-keyboard-response","121","523260","0.0-3.0-1.58","partial","Female","35","United States of America","","C956836","LB","freqGain","Mozilla/5.0 (Macintosh; Intel Mac OS X 10_14_5) AppleWebKit/537.36 (KHTML, like Gecko) Chrome/81.0.4044.138 Safari/537.36","1.29","","null","","You successfully harvested honey! You earned <b>3 </b>points.","","59","null","3","61","",""
"","html-button-response","122","524551","0.0-3.0-0.59","partial","Female","35","United States of America","","C956836","LB","freqGain","Mozilla/5.0 (Macintosh; Intel Mac OS X 10_14_5) AppleWebKit/537.36 (KHTML, like Gecko) Chrome/81.0.4044.138 Safari/537.36","1.29","","1290","","<img src = 'img/A0-B1-L1-W1.jpg' width = '600'>","0","60","","","","",""
"","html-keyboard-response","123","526556","0.0-3.0-1.59","partial","Female","35","United States of America","","C956836","LB","freqGain","Mozilla/5.0 (Macintosh; Intel Mac OS X 10_14_5) AppleWebKit/537.36 (KHTML, like Gecko) Chrome/81.0.4044.138 Safari/537.36","1.29","","null","","You successfully harvested honey! You earned <b>3 </b>points.","","60","null","3","64","",""
"","html-button-response","124","528076","0.0-3.0-0.60","partial","Female","35","United States of America","","C956836","LB","freqGain","Mozilla/5.0 (Macintosh; Intel Mac OS X 10_14_5) AppleWebKit/537.36 (KHTML, like Gecko) Chrome/81.0.4044.138 Safari/537.36","1.29","","1517","","<img src = 'img/A0-B1-L0-W1.jpg' width = '600'>","1","61","","","","",""
"","html-keyboard-response","125","530079","0.0-3.0-1.60","partial","Female","35","United States of America","","C956836","LB","freqGain","Mozilla/5.0 (Macintosh; Intel Mac OS X 10_14_5) AppleWebKit/537.36 (KHTML, like Gecko) Chrome/81.0.4044.138 Safari/537.36","1.29","","null","","You avoided this hive. You earned <b>0 </b>points.","","61","null","0","64","",""
"","html-button-response","126","533479","0.0-3.0-0.61","partial","Female","35","United States of America","","C956836","LB","freqGain","Mozilla/5.0 (Macintosh; Intel Mac OS X 10_14_5) AppleWebKit/537.36 (KHTML, like Gecko) Chrome/81.0.4044.138 Safari/537.36","1.29","","3398","","<img src = 'img/A0-B1-L0-W0.jpg' width = '600'>","1","62","","","","",""
"","html-keyboard-response","127","535480","0.0-3.0-1.61","partial","Female","35","United States of America","","C956836","LB","freqGain","Mozilla/5.0 (Macintosh; Intel Mac OS X 10_14_5) AppleWebKit/537.36 (KHTML, like Gecko) Chrome/81.0.4044.138 Safari/537.36","1.29","","null","","You avoided this hive. You earned <b>0 </b>points.","","62","null","0","64","",""
"","html-button-response","128","536387","0.0-3.0-0.62","partial","Female","35","United States of America","","C956836","LB","freqGain","Mozilla/5.0 (Macintosh; Intel Mac OS X 10_14_5) AppleWebKit/537.36 (KHTML, like Gecko) Chrome/81.0.4044.138 Safari/537.36","1.29","","905","","<img src = 'img/A1-B1-L0-W0.jpg' width = '600'>","1","63","","","","",""
"","html-keyboard-response","129","538393","0.0-3.0-1.62","partial","Female","35","United States of America","","C956836","LB","freqGain","Mozilla/5.0 (Macintosh; Intel Mac OS X 10_14_5) AppleWebKit/537.36 (KHTML, like Gecko) Chrome/81.0.4044.138 Safari/537.36","1.29","","null","","You avoided this hive. You earned <b>0 </b>points.","","63","null","0","64","",""
"","html-button-response","130","539201","0.0-3.0-0.63","partial","Female","35","United States of America","","C956836","LB","freqGain","Mozilla/5.0 (Macintosh; Intel Mac OS X 10_14_5) AppleWebKit/537.36 (KHTML, like Gecko) Chrome/81.0.4044.138 Safari/537.36","1.29","","807","","<img src = 'img/A0-B0-L0-W1.jpg' width = '600'>","1","64","","","","",""
"","html-keyboard-response","131","541207","0.0-3.0-1.63","partial","Female","35","United States of America","","C956836","LB","freqGain","Mozilla/5.0 (Macintosh; Intel Mac OS X 10_14_5) AppleWebKit/537.36 (KHTML, like Gecko) Chrome/81.0.4044.138 Safari/537.36","1.29","","null","","You avoided this hive. You earned <b>0 </b>points.","","64","null","0","64","",""
"","html-button-response","132","542620","0.0-3.0-0.64","partial","Female","35","United States of America","","C956836","LB","freqGain","Mozilla/5.0 (Macintosh; Intel Mac OS X 10_14_5) AppleWebKit/537.36 (KHTML, like Gecko) Chrome/81.0.4044.138 Safari/537.36","1.29","","1411","","<img src = 'img/A0-B1-L1-W0.jpg' width = '600'>","0","65","","","","",""
"","html-keyboard-response","133","544621","0.0-3.0-1.64","partial","Female","35","United States of America","","C956836","LB","freqGain","Mozilla/5.0 (Macintosh; Intel Mac OS X 10_14_5) AppleWebKit/537.36 (KHTML, like Gecko) Chrome/81.0.4044.138 Safari/537.36","1.29","","null","","You successfully harvested honey! You earned <b>3 </b>points.","","65","null","3","67","",""
"","html-button-response","134","545994","0.0-3.0-0.65","partial","Female","35","United States of America","","C956836","LB","freqGain","Mozilla/5.0 (Macintosh; Intel Mac OS X 10_14_5) AppleWebKit/537.36 (KHTML, like Gecko) Chrome/81.0.4044.138 Safari/537.36","1.29","","1370","","<img src = 'img/A1-B1-L0-W1.jpg' width = '600'>","1","66","","","","",""
"","html-keyboard-response","135","547999","0.0-3.0-1.65","partial","Female","35","United States of America","","C956836","LB","freqGain","Mozilla/5.0 (Macintosh; Intel Mac OS X 10_14_5) AppleWebKit/537.36 (KHTML, like Gecko) Chrome/81.0.4044.138 Safari/537.36","1.29","","null","","You avoided this hive. You earned <b>0 </b>points.","","66","null","0","67","",""
"","html-button-response","136","548948","0.0-3.0-0.66","partial","Female","35","United States of America","","C956836","LB","freqGain","Mozilla/5.0 (Macintosh; Intel Mac OS X 10_14_5) AppleWebKit/537.36 (KHTML, like Gecko) Chrome/81.0.4044.138 Safari/537.36","1.29","","948","","<img src = 'img/A1-B0-L1-W1.jpg' width = '600'>","1","67","","","","",""
"","html-keyboard-response","137","550952","0.0-3.0-1.66","partial","Female","35","United States of America","","C956836","LB","freqGain","Mozilla/5.0 (Macintosh; Intel Mac OS X 10_14_5) AppleWebKit/537.36 (KHTML, like Gecko) Chrome/81.0.4044.138 Safari/537.36","1.29","","null","","You avoided this hive. You earned <b>0 </b>points.","","67","null","0","67","",""
"","html-button-response","138","551838","0.0-3.0-0.67","partial","Female","35","United States of America","","C956836","LB","freqGain","Mozilla/5.0 (Macintosh; Intel Mac OS X 10_14_5) AppleWebKit/537.36 (KHTML, like Gecko) Chrome/81.0.4044.138 Safari/537.36","1.29","","885","","<img src = 'img/A1-B1-L0-W0.jpg' width = '600'>","1","68","","","","",""
"","html-keyboard-response","139","553844","0.0-3.0-1.67","partial","Female","35","United States of America","","C956836","LB","freqGain","Mozilla/5.0 (Macintosh; Intel Mac OS X 10_14_5) AppleWebKit/537.36 (KHTML, like Gecko) Chrome/81.0.4044.138 Safari/537.36","1.29","","null","","You avoided this hive. You earned <b>0 </b>points.","","68","null","0","67","",""
"","html-button-response","140","554508","0.0-3.0-0.68","partial","Female","35","United States of America","","C956836","LB","freqGain","Mozilla/5.0 (Macintosh; Intel Mac OS X 10_14_5) AppleWebKit/537.36 (KHTML, like Gecko) Chrome/81.0.4044.138 Safari/537.36","1.29","","663","","<img src = 'img/A1-B0-L0-W1.jpg' width = '600'>","1","69","","","","",""
"","html-keyboard-response","141","556514","0.0-3.0-1.68","partial","Female","35","United States of America","","C956836","LB","freqGain","Mozilla/5.0 (Macintosh; Intel Mac OS X 10_14_5) AppleWebKit/537.36 (KHTML, like Gecko) Chrome/81.0.4044.138 Safari/537.36","1.29","","null","","You avoided this hive. You earned <b>0 </b>points.","","69","null","0","67","",""
"","html-button-response","142","557243","0.0-3.0-0.69","partial","Female","35","United States of America","","C956836","LB","freqGain","Mozilla/5.0 (Macintosh; Intel Mac OS X 10_14_5) AppleWebKit/537.36 (KHTML, like Gecko) Chrome/81.0.4044.138 Safari/537.36","1.29","","727","","<img src = 'img/A1-B0-L1-W0.jpg' width = '600'>","1","70","","","","",""
"","html-keyboard-response","143","559245","0.0-3.0-1.69","partial","Female","35","United States of America","","C956836","LB","freqGain","Mozilla/5.0 (Macintosh; Intel Mac OS X 10_14_5) AppleWebKit/537.36 (KHTML, like Gecko) Chrome/81.0.4044.138 Safari/537.36","1.29","","null","","You avoided this hive. You earned <b>0 </b>points.","","70","null","0","67","",""
"","html-button-response","144","560336","0.0-3.0-0.70","partial","Female","35","United States of America","","C956836","LB","freqGain","Mozilla/5.0 (Macintosh; Intel Mac OS X 10_14_5) AppleWebKit/537.36 (KHTML, like Gecko) Chrome/81.0.4044.138 Safari/537.36","1.29","","1090","","<img src = 'img/A0-B0-L1-W0.jpg' width = '600'>","1","71","","","","",""
"","html-keyboard-response","145","562339","0.0-3.0-1.70","partial","Female","35","United States of America","","C956836","LB","freqGain","Mozilla/5.0 (Macintosh; Intel Mac OS X 10_14_5) AppleWebKit/537.36 (KHTML, like Gecko) Chrome/81.0.4044.138 Safari/537.36","1.29","","null","","You avoided this hive. You earned <b>0 </b>points.","","71","null","0","67","",""
"","html-button-response","146","563736","0.0-3.0-0.71","partial","Female","35","United States of America","","C956836","LB","freqGain","Mozilla/5.0 (Macintosh; Intel Mac OS X 10_14_5) AppleWebKit/537.36 (KHTML, like Gecko) Chrome/81.0.4044.138 Safari/537.36","1.29","","1395","","<img src = 'img/A0-B1-L1-W1.jpg' width = '600'>","0","72","","","","",""
"","html-keyboard-response","147","565742","0.0-3.0-1.71","partial","Female","35","United States of America","","C956836","LB","freqGain","Mozilla/5.0 (Macintosh; Intel Mac OS X 10_14_5) AppleWebKit/537.36 (KHTML, like Gecko) Chrome/81.0.4044.138 Safari/537.36","1.29","","null","","You successfully harvested honey! You earned <b>3 </b>points.","","72","null","3","70","",""
"","html-button-response","148","566748","0.0-3.0-0.72","partial","Female","35","United States of America","","C956836","LB","freqGain","Mozilla/5.0 (Macintosh; Intel Mac OS X 10_14_5) AppleWebKit/537.36 (KHTML, like Gecko) Chrome/81.0.4044.138 Safari/537.36","1.29","","1003","","<img src = 'img/A1-B0-L0-W0.jpg' width = '600'>","1","73","","","","",""
"","html-keyboard-response","149","568754","0.0-3.0-1.72","partial","Female","35","United States of America","","C956836","LB","freqGain","Mozilla/5.0 (Macintosh; Intel Mac OS X 10_14_5) AppleWebKit/537.36 (KHTML, like Gecko) Chrome/81.0.4044.138 Safari/537.36","1.29","","null","","You avoided this hive. You earned <b>0 </b>points.","","73","null","0","70","",""
"","html-button-response","150","569312","0.0-3.0-0.73","partial","Female","35","United States of America","","C956836","LB","freqGain","Mozilla/5.0 (Macintosh; Intel Mac OS X 10_14_5) AppleWebKit/537.36 (KHTML, like Gecko) Chrome/81.0.4044.138 Safari/537.36","1.29","","556","","<img src = 'img/A1-B1-L1-W1.jpg' width = '600'>","1","74","","","","",""
"","html-keyboard-response","151","571318","0.0-3.0-1.73","partial","Female","35","United States of America","","C956836","LB","freqGain","Mozilla/5.0 (Macintosh; Intel Mac OS X 10_14_5) AppleWebKit/537.36 (KHTML, like Gecko) Chrome/81.0.4044.138 Safari/537.36","1.29","","null","","You avoided this hive. You earned <b>0 </b>points.","","74","null","0","70","",""
"","html-button-response","152","572298","0.0-3.0-0.74","partial","Female","35","United States of America","","C956836","LB","freqGain","Mozilla/5.0 (Macintosh; Intel Mac OS X 10_14_5) AppleWebKit/537.36 (KHTML, like Gecko) Chrome/81.0.4044.138 Safari/537.36","1.29","","978","","<img src = 'img/A0-B1-L0-W1.jpg' width = '600'>","1","75","","","","",""
"","html-keyboard-response","153","574299","0.0-3.0-1.74","partial","Female","35","United States of America","","C956836","LB","freqGain","Mozilla/5.0 (Macintosh; Intel Mac OS X 10_14_5) AppleWebKit/537.36 (KHTML, like Gecko) Chrome/81.0.4044.138 Safari/537.36","1.29","","null","","You avoided this hive. You earned <b>0 </b>points.","","75","null","0","70","",""
"","html-button-response","154","575628","0.0-3.0-0.75","partial","Female","35","United States of America","","C956836","LB","freqGain","Mozilla/5.0 (Macintosh; Intel Mac OS X 10_14_5) AppleWebKit/537.36 (KHTML, like Gecko) Chrome/81.0.4044.138 Safari/537.36","1.29","","1328","","<img src = 'img/A0-B0-L1-W1.jpg' width = '600'>","1","76","","","","",""
"","html-keyboard-response","155","577634","0.0-3.0-1.75","partial","Female","35","United States of America","","C956836","LB","freqGain","Mozilla/5.0 (Macintosh; Intel Mac OS X 10_14_5) AppleWebKit/537.36 (KHTML, like Gecko) Chrome/81.0.4044.138 Safari/537.36","1.29","","null","","You avoided this hive. You earned <b>0 </b>points.","","76","null","0","70","",""
"","html-button-response","156","578461","0.0-3.0-0.76","partial","Female","35","United States of America","","C956836","LB","freqGain","Mozilla/5.0 (Macintosh; Intel Mac OS X 10_14_5) AppleWebKit/537.36 (KHTML, like Gecko) Chrome/81.0.4044.138 Safari/537.36","1.29","","825","","<img src = 'img/A0-B0-L0-W0.jpg' width = '600'>","1","77","","","","",""
"","html-keyboard-response","157","580466","0.0-3.0-1.76","partial","Female","35","United States of America","","C956836","LB","freqGain","Mozilla/5.0 (Macintosh; Intel Mac OS X 10_14_5) AppleWebKit/537.36 (KHTML, like Gecko) Chrome/81.0.4044.138 Safari/537.36","1.29","","null","","You avoided this hive. You earned <b>0 </b>points.","","77","null","0","70","",""
"","html-button-response","158","581236","0.0-3.0-0.77","partial","Female","35","United States of America","","C956836","LB","freqGain","Mozilla/5.0 (Macintosh; Intel Mac OS X 10_14_5) AppleWebKit/537.36 (KHTML, like Gecko) Chrome/81.0.4044.138 Safari/537.36","1.29","","769","","<img src = 'img/A0-B0-L0-W1.jpg' width = '600'>","1","78","","","","",""
"","html-keyboard-response","159","583240","0.0-3.0-1.77","partial","Female","35","United States of America","","C956836","LB","freqGain","Mozilla/5.0 (Macintosh; Intel Mac OS X 10_14_5) AppleWebKit/537.36 (KHTML, like Gecko) Chrome/81.0.4044.138 Safari/537.36","1.29","","null","","You avoided this hive. You earned <b>0 </b>points.","","78","null","0","70","",""
"","html-button-response","160","584110","0.0-3.0-0.78","partial","Female","35","United States of America","","C956836","LB","freqGain","Mozilla/5.0 (Macintosh; Intel Mac OS X 10_14_5) AppleWebKit/537.36 (KHTML, like Gecko) Chrome/81.0.4044.138 Safari/537.36","1.29","","868","","<img src = 'img/A0-B1-L0-W0.jpg' width = '600'>","1","79","","","","",""
"","html-keyboard-response","161","586111","0.0-3.0-1.78","partial","Female","35","United States of America","","C956836","LB","freqGain","Mozilla/5.0 (Macintosh; Intel Mac OS X 10_14_5) AppleWebKit/537.36 (KHTML, like Gecko) Chrome/81.0.4044.138 Safari/537.36","1.29","","null","","You avoided this hive. You earned <b>0 </b>points.","","79","null","0","70","",""
"","html-button-response","162","587389","0.0-3.0-0.79","partial","Female","35","United States of America","","C956836","LB","freqGain","Mozilla/5.0 (Macintosh; Intel Mac OS X 10_14_5) AppleWebKit/537.36 (KHTML, like Gecko) Chrome/81.0.4044.138 Safari/537.36","1.29","","1277","","<img src = 'img/A1-B1-L1-W0.jpg' width = '600'>","0","80","","","","",""
"","html-keyboard-response","163","589394","0.0-3.0-1.79","partial","Female","35","United States of America","","C956836","LB","freqGain","Mozilla/5.0 (Macintosh; Intel Mac OS X 10_14_5) AppleWebKit/537.36 (KHTML, like Gecko) Chrome/81.0.4044.138 Safari/537.36","1.29","","null","","You successfully harvested honey! You earned <b>3 </b>points.","","80","null","3","73","",""
"","html-button-response","164","590161","0.0-3.0-0.80","partial","Female","35","United States of America","","C956836","LB","freqGain","Mozilla/5.0 (Macintosh; Intel Mac OS X 10_14_5) AppleWebKit/537.36 (KHTML, like Gecko) Chrome/81.0.4044.138 Safari/537.36","1.29","","765","","<img src = 'img/A1-B0-L0-W1.jpg' width = '600'>","1","81","","","","",""
"","html-keyboard-response","165","592162","0.0-3.0-1.80","partial","Female","35","United States of America","","C956836","LB","freqGain","Mozilla/5.0 (Macintosh; Intel Mac OS X 10_14_5) AppleWebKit/537.36 (KHTML, like Gecko) Chrome/81.0.4044.138 Safari/537.36","1.29","","null","","You avoided this hive. You earned <b>0 </b>points.","","81","null","0","73","",""
"","html-button-response","166","593018","0.0-3.0-0.81","partial","Female","35","United States of America","","C956836","LB","freqGain","Mozilla/5.0 (Macintosh; Intel Mac OS X 10_14_5) AppleWebKit/537.36 (KHTML, like Gecko) Chrome/81.0.4044.138 Safari/537.36","1.29","","855","","<img src = 'img/A1-B0-L1-W0.jpg' width = '600'>","1","82","","","","",""
"","html-keyboard-response","167","595024","0.0-3.0-1.81","partial","Female","35","United States of America","","C956836","LB","freqGain","Mozilla/5.0 (Macintosh; Intel Mac OS X 10_14_5) AppleWebKit/537.36 (KHTML, like Gecko) Chrome/81.0.4044.138 Safari/537.36","1.29","","null","","You avoided this hive. You earned <b>0 </b>points.","","82","null","0","73","",""
"","html-button-response","168","595981","0.0-3.0-0.82","partial","Female","35","United States of America","","C956836","LB","freqGain","Mozilla/5.0 (Macintosh; Intel Mac OS X 10_14_5) AppleWebKit/537.36 (KHTML, like Gecko) Chrome/81.0.4044.138 Safari/537.36","1.29","","955","","<img src = 'img/A1-B1-L0-W0.jpg' width = '600'>","1","83","","","","",""
"","html-keyboard-response","169","597982","0.0-3.0-1.82","partial","Female","35","United States of America","","C956836","LB","freqGain","Mozilla/5.0 (Macintosh; Intel Mac OS X 10_14_5) AppleWebKit/537.36 (KHTML, like Gecko) Chrome/81.0.4044.138 Safari/537.36","1.29","","null","","You avoided this hive. You earned <b>0 </b>points.","","83","null","0","73","",""
"","html-button-response","170","598683","0.0-3.0-0.83","partial","Female","35","United States of America","","C956836","LB","freqGain","Mozilla/5.0 (Macintosh; Intel Mac OS X 10_14_5) AppleWebKit/537.36 (KHTML, like Gecko) Chrome/81.0.4044.138 Safari/537.36","1.29","","699","","<img src = 'img/A0-B0-L0-W0.jpg' width = '600'>","1","84","","","","",""
"","html-keyboard-response","171","600689","0.0-3.0-1.83","partial","Female","35","United States of America","","C956836","LB","freqGain","Mozilla/5.0 (Macintosh; Intel Mac OS X 10_14_5) AppleWebKit/537.36 (KHTML, like Gecko) Chrome/81.0.4044.138 Safari/537.36","1.29","","null","","You avoided this hive. You earned <b>0 </b>points.","","84","null","0","73","",""
"","html-button-response","172","601913","0.0-3.0-0.84","partial","Female","35","United States of America","","C956836","LB","freqGain","Mozilla/5.0 (Macintosh; Intel Mac OS X 10_14_5) AppleWebKit/537.36 (KHTML, like Gecko) Chrome/81.0.4044.138 Safari/537.36","1.29","","1222","","<img src = 'img/A0-B1-L1-W0.jpg' width = '600'>","0","85","","","","",""
"","html-keyboard-response","173","603917","0.0-3.0-1.84","partial","Female","35","United States of America","","C956836","LB","freqGain","Mozilla/5.0 (Macintosh; Intel Mac OS X 10_14_5) AppleWebKit/537.36 (KHTML, like Gecko) Chrome/81.0.4044.138 Safari/537.36","1.29","","null","","You successfully harvested honey! You earned <b>3 </b>points.","","85","null","3","76","",""
"","html-button-response","174","604872","0.0-3.0-0.85","partial","Female","35","United States of America","","C956836","LB","freqGain","Mozilla/5.0 (Macintosh; Intel Mac OS X 10_14_5) AppleWebKit/537.36 (KHTML, like Gecko) Chrome/81.0.4044.138 Safari/537.36","1.29","","953","","<img src = 'img/A0-B0-L1-W1.jpg' width = '600'>","1","86","","","","",""
"","html-keyboard-response","175","606875","0.0-3.0-1.85","partial","Female","35","United States of America","","C956836","LB","freqGain","Mozilla/5.0 (Macintosh; Intel Mac OS X 10_14_5) AppleWebKit/537.36 (KHTML, like Gecko) Chrome/81.0.4044.138 Safari/537.36","1.29","","null","","You avoided this hive. You earned <b>0 </b>points.","","86","null","0","76","",""
"","html-button-response","176","608039","0.0-3.0-0.86","partial","Female","35","United States of America","","C956836","LB","freqGain","Mozilla/5.0 (Macintosh; Intel Mac OS X 10_14_5) AppleWebKit/537.36 (KHTML, like Gecko) Chrome/81.0.4044.138 Safari/537.36","1.29","","1162","","<img src = 'img/A1-B0-L0-W0.jpg' width = '600'>","1","87","","","","",""
"","html-keyboard-response","177","610045","0.0-3.0-1.86","partial","Female","35","United States of America","","C956836","LB","freqGain","Mozilla/5.0 (Macintosh; Intel Mac OS X 10_14_5) AppleWebKit/537.36 (KHTML, like Gecko) Chrome/81.0.4044.138 Safari/537.36","1.29","","null","","You avoided this hive. You earned <b>0 </b>points.","","87","null","0","76","",""
"","html-button-response","178","611571","0.0-3.0-0.87","partial","Female","35","United States of America","","C956836","LB","freqGain","Mozilla/5.0 (Macintosh; Intel Mac OS X 10_14_5) AppleWebKit/537.36 (KHTML, like Gecko) Chrome/81.0.4044.138 Safari/537.36","1.29","","1524","","<img src = 'img/A0-B1-L1-W1.jpg' width = '600'>","0","88","","","","",""
"","html-keyboard-response","179","613571","0.0-3.0-1.87","partial","Female","35","United States of America","","C956836","LB","freqGain","Mozilla/5.0 (Macintosh; Intel Mac OS X 10_14_5) AppleWebKit/537.36 (KHTML, like Gecko) Chrome/81.0.4044.138 Safari/537.36","1.29","","null","","You successfully harvested honey! You earned <b>3 </b>points.","","88","null","3","79","",""
"","html-button-response","180","614595","0.0-3.0-0.88","partial","Female","35","United States of America","","C956836","LB","freqGain","Mozilla/5.0 (Macintosh; Intel Mac OS X 10_14_5) AppleWebKit/537.36 (KHTML, like Gecko) Chrome/81.0.4044.138 Safari/537.36","1.29","","1022","","<img src = 'img/A0-B1-L0-W1.jpg' width = '600'>","1","89","","","","",""
"","html-keyboard-response","181","616596","0.0-3.0-1.88","partial","Female","35","United States of America","","C956836","LB","freqGain","Mozilla/5.0 (Macintosh; Intel Mac OS X 10_14_5) AppleWebKit/537.36 (KHTML, like Gecko) Chrome/81.0.4044.138 Safari/537.36","1.29","","null","","You avoided this hive. You earned <b>0 </b>points.","","89","null","0","79","",""
"","html-button-response","182","617801","0.0-3.0-0.89","partial","Female","35","United States of America","","C956836","LB","freqGain","Mozilla/5.0 (Macintosh; Intel Mac OS X 10_14_5) AppleWebKit/537.36 (KHTML, like Gecko) Chrome/81.0.4044.138 Safari/537.36","1.29","","1204","","<img src = 'img/A1-B1-L1-W0.jpg' width = '600'>","0","90","","","","",""
"","html-keyboard-response","183","619803","0.0-3.0-1.89","partial","Female","35","United States of America","","C956836","LB","freqGain","Mozilla/5.0 (Macintosh; Intel Mac OS X 10_14_5) AppleWebKit/537.36 (KHTML, like Gecko) Chrome/81.0.4044.138 Safari/537.36","1.29","","null","","You successfully harvested honey! You earned <b>3 </b>points.","","90","null","3","82","",""
"","html-button-response","184","620368","0.0-3.0-0.90","partial","Female","35","United States of America","","C956836","LB","freqGain","Mozilla/5.0 (Macintosh; Intel Mac OS X 10_14_5) AppleWebKit/537.36 (KHTML, like Gecko) Chrome/81.0.4044.138 Safari/537.36","1.29","","564","","<img src = 'img/A1-B1-L1-W1.jpg' width = '600'>","1","91","","","","",""
"","html-keyboard-response","185","622371","0.0-3.0-1.90","partial","Female","35","United States of America","","C956836","LB","freqGain","Mozilla/5.0 (Macintosh; Intel Mac OS X 10_14_5) AppleWebKit/537.36 (KHTML, like Gecko) Chrome/81.0.4044.138 Safari/537.36","1.29","","null","","You avoided this hive. You earned <b>0 </b>points.","","91","null","0","82","",""
"","html-button-response","186","623177","0.0-3.0-0.91","partial","Female","35","United States of America","","C956836","LB","freqGain","Mozilla/5.0 (Macintosh; Intel Mac OS X 10_14_5) AppleWebKit/537.36 (KHTML, like Gecko) Chrome/81.0.4044.138 Safari/537.36","1.29","","804","","<img src = 'img/A0-B1-L0-W0.jpg' width = '600'>","1","92","","","","",""
"","html-keyboard-response","187","625183","0.0-3.0-1.91","partial","Female","35","United States of America","","C956836","LB","freqGain","Mozilla/5.0 (Macintosh; Intel Mac OS X 10_14_5) AppleWebKit/537.36 (KHTML, like Gecko) Chrome/81.0.4044.138 Safari/537.36","1.29","","null","","You avoided this hive. You earned <b>0 </b>points.","","92","null","0","82","",""
"","html-button-response","188","625935","0.0-3.0-0.92","partial","Female","35","United States of America","","C956836","LB","freqGain","Mozilla/5.0 (Macintosh; Intel Mac OS X 10_14_5) AppleWebKit/537.36 (KHTML, like Gecko) Chrome/81.0.4044.138 Safari/537.36","1.29","","751","","<img src = 'img/A0-B0-L0-W1.jpg' width = '600'>","1","93","","","","",""
"","html-keyboard-response","189","627942","0.0-3.0-1.92","partial","Female","35","United States of America","","C956836","LB","freqGain","Mozilla/5.0 (Macintosh; Intel Mac OS X 10_14_5) AppleWebKit/537.36 (KHTML, like Gecko) Chrome/81.0.4044.138 Safari/537.36","1.29","","null","","You avoided this hive. You earned <b>0 </b>points.","","93","null","0","82","",""
"","html-button-response","190","629623","0.0-3.0-0.93","partial","Female","35","United States of America","","C956836","LB","freqGain","Mozilla/5.0 (Macintosh; Intel Mac OS X 10_14_5) AppleWebKit/537.36 (KHTML, like Gecko) Chrome/81.0.4044.138 Safari/537.36","1.29","","1679","","<img src = 'img/A0-B0-L1-W0.jpg' width = '600'>","1","94","","","","",""
"","html-keyboard-response","191","631629","0.0-3.0-1.93","partial","Female","35","United States of America","","C956836","LB","freqGain","Mozilla/5.0 (Macintosh; Intel Mac OS X 10_14_5) AppleWebKit/537.36 (KHTML, like Gecko) Chrome/81.0.4044.138 Safari/537.36","1.29","","null","","You avoided this hive. You earned <b>0 </b>points.","","94","null","0","82","",""
"","html-button-response","192","632580","0.0-3.0-0.94","partial","Female","35","United States of America","","C956836","LB","freqGain","Mozilla/5.0 (Macintosh; Intel Mac OS X 10_14_5) AppleWebKit/537.36 (KHTML, like Gecko) Chrome/81.0.4044.138 Safari/537.36","1.29","","948","","<img src = 'img/A1-B0-L1-W1.jpg' width = '600'>","1","95","","","","",""
"","html-keyboard-response","193","634585","0.0-3.0-1.94","partial","Female","35","United States of America","","C956836","LB","freqGain","Mozilla/5.0 (Macintosh; Intel Mac OS X 10_14_5) AppleWebKit/537.36 (KHTML, like Gecko) Chrome/81.0.4044.138 Safari/537.36","1.29","","null","","You avoided this hive. You earned <b>0 </b>points.","","95","null","0","82","",""
"","html-button-response","194","635442","0.0-3.0-0.95","partial","Female","35","United States of America","","C956836","LB","freqGain","Mozilla/5.0 (Macintosh; Intel Mac OS X 10_14_5) AppleWebKit/537.36 (KHTML, like Gecko) Chrome/81.0.4044.138 Safari/537.36","1.29","","856","","<img src = 'img/A1-B1-L0-W1.jpg' width = '600'>","1","96","","","","",""
"","html-keyboard-response","195","637443","0.0-3.0-1.95","partial","Female","35","United States of America","","C956836","LB","freqGain","Mozilla/5.0 (Macintosh; Intel Mac OS X 10_14_5) AppleWebKit/537.36 (KHTML, like Gecko) Chrome/81.0.4044.138 Safari/537.36","1.29","","null","","You avoided this hive. You earned <b>0 </b>points.","","96","null","0","82","",""
"","html-button-response","196","638226","0.0-3.0-0.96","partial","Female","35","United States of America","","C956836","LB","freqGain","Mozilla/5.0 (Macintosh; Intel Mac OS X 10_14_5) AppleWebKit/537.36 (KHTML, like Gecko) Chrome/81.0.4044.138 Safari/537.36","1.29","","781","","<img src = 'img/A0-B0-L1-W1.jpg' width = '600'>","1","97","","","","",""
"","html-keyboard-response","197","640232","0.0-3.0-1.96","partial","Female","35","United States of America","","C956836","LB","freqGain","Mozilla/5.0 (Macintosh; Intel Mac OS X 10_14_5) AppleWebKit/537.36 (KHTML, like Gecko) Chrome/81.0.4044.138 Safari/537.36","1.29","","null","","You avoided this hive. You earned <b>0 </b>points.","","97","null","0","82","",""
"","html-button-response","198","640913","0.0-3.0-0.97","partial","Female","35","United States of America","","C956836","LB","freqGain","Mozilla/5.0 (Macintosh; Intel Mac OS X 10_14_5) AppleWebKit/537.36 (KHTML, like Gecko) Chrome/81.0.4044.138 Safari/537.36","1.29","","679","","<img src = 'img/A0-B0-L0-W0.jpg' width = '600'>","1","98","","","","",""
"","html-keyboard-response","199","642919","0.0-3.0-1.97","partial","Female","35","United States of America","","C956836","LB","freqGain","Mozilla/5.0 (Macintosh; Intel Mac OS X 10_14_5) AppleWebKit/537.36 (KHTML, like Gecko) Chrome/81.0.4044.138 Safari/537.36","1.29","","null","","You avoided this hive. You earned <b>0 </b>points.","","98","null","0","82","",""
"","html-button-response","200","644258","0.0-3.0-0.98","partial","Female","35","United States of America","","C956836","LB","freqGain","Mozilla/5.0 (Macintosh; Intel Mac OS X 10_14_5) AppleWebKit/537.36 (KHTML, like Gecko) Chrome/81.0.4044.138 Safari/537.36","1.29","","1337","","<img src = 'img/A0-B1-L1-W1.jpg' width = '600'>","0","99","","","","",""
"","html-keyboard-response","201","646264","0.0-3.0-1.98","partial","Female","35","United States of America","","C956836","LB","freqGain","Mozilla/5.0 (Macintosh; Intel Mac OS X 10_14_5) AppleWebKit/537.36 (KHTML, like Gecko) Chrome/81.0.4044.138 Safari/537.36","1.29","","null","","You successfully harvested honey! You earned <b>3 </b>points.","","99","null","3","85","",""
"","html-button-response","202","647546","0.0-3.0-0.99","partial","Female","35","United States of America","","C956836","LB","freqGain","Mozilla/5.0 (Macintosh; Intel Mac OS X 10_14_5) AppleWebKit/537.36 (KHTML, like Gecko) Chrome/81.0.4044.138 Safari/537.36","1.29","","1280","","<img src = 'img/A1-B0-L0-W1.jpg' width = '600'>","1","100","","","","",""
"","html-keyboard-response","203","649552","0.0-3.0-1.99","partial","Female","35","United States of America","","C956836","LB","freqGain","Mozilla/5.0 (Macintosh; Intel Mac OS X 10_14_5) AppleWebKit/537.36 (KHTML, like Gecko) Chrome/81.0.4044.138 Safari/537.36","1.29","","null","","You avoided this hive. You earned <b>0 </b>points.","","100","null","0","85","",""
"","html-button-response","204","650826","0.0-3.0-0.100","partial","Female","35","United States of America","","C956836","LB","freqGain","Mozilla/5.0 (Macintosh; Intel Mac OS X 10_14_5) AppleWebKit/537.36 (KHTML, like Gecko) Chrome/81.0.4044.138 Safari/537.36","1.29","","1272","","<img src = 'img/A1-B1-L1-W1.jpg' width = '600'>","0","101","","","","",""
"","html-keyboard-response","205","652829","0.0-3.0-1.100","partial","Female","35","United States of America","","C956836","LB","freqGain","Mozilla/5.0 (Macintosh; Intel Mac OS X 10_14_5) AppleWebKit/537.36 (KHTML, like Gecko) Chrome/81.0.4044.138 Safari/537.36","1.29","","null","","You successfully harvested honey! You earned <b>3 </b>points.","","101","null","3","88","",""
"","html-button-response","206","653613","0.0-3.0-0.101","partial","Female","35","United States of America","","C956836","LB","freqGain","Mozilla/5.0 (Macintosh; Intel Mac OS X 10_14_5) AppleWebKit/537.36 (KHTML, like Gecko) Chrome/81.0.4044.138 Safari/537.36","1.29","","783","","<img src = 'img/A1-B0-L1-W1.jpg' width = '600'>","1","102","","","","",""
"","html-keyboard-response","207","655617","0.0-3.0-1.101","partial","Female","35","United States of America","","C956836","LB","freqGain","Mozilla/5.0 (Macintosh; Intel Mac OS X 10_14_5) AppleWebKit/537.36 (KHTML, like Gecko) Chrome/81.0.4044.138 Safari/537.36","1.29","","null","","You avoided this hive. You earned <b>0 </b>points.","","102","null","0","88","",""
"","html-button-response","208","656690","0.0-3.0-0.102","partial","Female","35","United States of America","","C956836","LB","freqGain","Mozilla/5.0 (Macintosh; Intel Mac OS X 10_14_5) AppleWebKit/537.36 (KHTML, like Gecko) Chrome/81.0.4044.138 Safari/537.36","1.29","","1071","","<img src = 'img/A1-B1-L0-W1.jpg' width = '600'>","1","103","","","","",""
"","html-keyboard-response","209","658696","0.0-3.0-1.102","partial","Female","35","United States of America","","C956836","LB","freqGain","Mozilla/5.0 (Macintosh; Intel Mac OS X 10_14_5) AppleWebKit/537.36 (KHTML, like Gecko) Chrome/81.0.4044.138 Safari/537.36","1.29","","null","","You avoided this hive. You earned <b>0 </b>points.","","103","null","0","88","",""
"","html-button-response","210","660157","0.0-3.0-0.103","partial","Female","35","United States of America","","C956836","LB","freqGain","Mozilla/5.0 (Macintosh; Intel Mac OS X 10_14_5) AppleWebKit/537.36 (KHTML, like Gecko) Chrome/81.0.4044.138 Safari/537.36","1.29","","1460","","<img src = 'img/A0-B1-L0-W1.jpg' width = '600'>","1","104","","","","",""
"","html-keyboard-response","211","662159","0.0-3.0-1.103","partial","Female","35","United States of America","","C956836","LB","freqGain","Mozilla/5.0 (Macintosh; Intel Mac OS X 10_14_5) AppleWebKit/537.36 (KHTML, like Gecko) Chrome/81.0.4044.138 Safari/537.36","1.29","","null","","You avoided this hive. You earned <b>0 </b>points.","","104","null","0","88","",""
"","html-button-response","212","663568","0.0-3.0-0.104","partial","Female","35","United States of America","","C956836","LB","freqGain","Mozilla/5.0 (Macintosh; Intel Mac OS X 10_14_5) AppleWebKit/537.36 (KHTML, like Gecko) Chrome/81.0.4044.138 Safari/537.36","1.29","","1408","","<img src = 'img/A1-B1-L1-W0.jpg' width = '600'>","0","105","","","","",""
"","html-keyboard-response","213","665572","0.0-3.0-1.104","partial","Female","35","United States of America","","C956836","LB","freqGain","Mozilla/5.0 (Macintosh; Intel Mac OS X 10_14_5) AppleWebKit/537.36 (KHTML, like Gecko) Chrome/81.0.4044.138 Safari/537.36","1.29","","null","","You successfully harvested honey! You earned <b>3 </b>points.","","105","null","3","91","",""
"","html-button-response","214","666633","0.0-3.0-0.105","partial","Female","35","United States of America","","C956836","LB","freqGain","Mozilla/5.0 (Macintosh; Intel Mac OS X 10_14_5) AppleWebKit/537.36 (KHTML, like Gecko) Chrome/81.0.4044.138 Safari/537.36","1.29","","1058","","<img src = 'img/A1-B1-L0-W0.jpg' width = '600'>","1","106","","","","",""
"","html-keyboard-response","215","668634","0.0-3.0-1.105","partial","Female","35","United States of America","","C956836","LB","freqGain","Mozilla/5.0 (Macintosh; Intel Mac OS X 10_14_5) AppleWebKit/537.36 (KHTML, like Gecko) Chrome/81.0.4044.138 Safari/537.36","1.29","","null","","You avoided this hive. You earned <b>0 </b>points.","","106","null","0","91","",""
"","html-button-response","216","669489","0.0-3.0-0.106","partial","Female","35","United States of America","","C956836","LB","freqGain","Mozilla/5.0 (Macintosh; Intel Mac OS X 10_14_5) AppleWebKit/537.36 (KHTML, like Gecko) Chrome/81.0.4044.138 Safari/537.36","1.29","","854","","<img src = 'img/A0-B1-L0-W0.jpg' width = '600'>","1","107","","","","",""
"","html-keyboard-response","217","671495","0.0-3.0-1.106","partial","Female","35","United States of America","","C956836","LB","freqGain","Mozilla/5.0 (Macintosh; Intel Mac OS X 10_14_5) AppleWebKit/537.36 (KHTML, like Gecko) Chrome/81.0.4044.138 Safari/537.36","1.29","","null","","You avoided this hive. You earned <b>0 </b>points.","","107","null","0","91","",""
"","html-button-response","218","672168","0.0-3.0-0.107","partial","Female","35","United States of America","","C956836","LB","freqGain","Mozilla/5.0 (Macintosh; Intel Mac OS X 10_14_5) AppleWebKit/537.36 (KHTML, like Gecko) Chrome/81.0.4044.138 Safari/537.36","1.29","","671","","<img src = 'img/A1-B0-L0-W0.jpg' width = '600'>","1","108","","","","",""
"","html-keyboard-response","219","674168","0.0-3.0-1.107","partial","Female","35","United States of America","","C956836","LB","freqGain","Mozilla/5.0 (Macintosh; Intel Mac OS X 10_14_5) AppleWebKit/537.36 (KHTML, like Gecko) Chrome/81.0.4044.138 Safari/537.36","1.29","","null","","You avoided this hive. You earned <b>0 </b>points.","","108","null","0","91","",""
"","html-button-response","220","675742","0.0-3.0-0.108","partial","Female","35","United States of America","","C956836","LB","freqGain","Mozilla/5.0 (Macintosh; Intel Mac OS X 10_14_5) AppleWebKit/537.36 (KHTML, like Gecko) Chrome/81.0.4044.138 Safari/537.36","1.29","","1573","","<img src = 'img/A0-B1-L1-W0.jpg' width = '600'>","0","109","","","","",""
"","html-keyboard-response","221","677748","0.0-3.0-1.108","partial","Female","35","United States of America","","C956836","LB","freqGain","Mozilla/5.0 (Macintosh; Intel Mac OS X 10_14_5) AppleWebKit/537.36 (KHTML, like Gecko) Chrome/81.0.4044.138 Safari/537.36","1.29","","null","","You successfully harvested honey! You earned <b>3 </b>points.","","109","null","3","94","",""
"","html-button-response","222","678794","0.0-3.0-0.109","partial","Female","35","United States of America","","C956836","LB","freqGain","Mozilla/5.0 (Macintosh; Intel Mac OS X 10_14_5) AppleWebKit/537.36 (KHTML, like Gecko) Chrome/81.0.4044.138 Safari/537.36","1.29","","1043","","<img src = 'img/A0-B0-L0-W1.jpg' width = '600'>","1","110","","","","",""
"","html-keyboard-response","223","680800","0.0-3.0-1.109","partial","Female","35","United States of America","","C956836","LB","freqGain","Mozilla/5.0 (Macintosh; Intel Mac OS X 10_14_5) AppleWebKit/537.36 (KHTML, like Gecko) Chrome/81.0.4044.138 Safari/537.36","1.29","","null","","You avoided this hive. You earned <b>0 </b>points.","","110","null","0","94","",""
"","html-button-response","224","681757","0.0-3.0-0.110","partial","Female","35","United States of America","","C956836","LB","freqGain","Mozilla/5.0 (Macintosh; Intel Mac OS X 10_14_5) AppleWebKit/537.36 (KHTML, like Gecko) Chrome/81.0.4044.138 Safari/537.36","1.29","","955","","<img src = 'img/A0-B0-L1-W0.jpg' width = '600'>","1","111","","","","",""
"","html-keyboard-response","225","683762","0.0-3.0-1.110","partial","Female","35","United States of America","","C956836","LB","freqGain","Mozilla/5.0 (Macintosh; Intel Mac OS X 10_14_5) AppleWebKit/537.36 (KHTML, like Gecko) Chrome/81.0.4044.138 Safari/537.36","1.29","","null","","You avoided this hive. You earned <b>0 </b>points.","","111","null","0","94","",""
"","html-button-response","226","684630","0.0-3.0-0.111","partial","Female","35","United States of America","","C956836","LB","freqGain","Mozilla/5.0 (Macintosh; Intel Mac OS X 10_14_5) AppleWebKit/537.36 (KHTML, like Gecko) Chrome/81.0.4044.138 Safari/537.36","1.29","","865","","<img src = 'img/A1-B0-L1-W0.jpg' width = '600'>","1","112","","","","",""
"","html-keyboard-response","227","686635","0.0-3.0-1.111","partial","Female","35","United States of America","","C956836","LB","freqGain","Mozilla/5.0 (Macintosh; Intel Mac OS X 10_14_5) AppleWebKit/537.36 (KHTML, like Gecko) Chrome/81.0.4044.138 Safari/537.36","1.29","","null","","You avoided this hive. You earned <b>0 </b>points.","","112","null","0","94","",""
"","html-button-response","228","687788","0.0-3.0-0.112","partial","Female","35","United States of America","","C956836","LB","freqGain","Mozilla/5.0 (Macintosh; Intel Mac OS X 10_14_5) AppleWebKit/537.36 (KHTML, like Gecko) Chrome/81.0.4044.138 Safari/537.36","1.29","","1151","","<img src = 'img/A0-B1-L0-W1.jpg' width = '600'>","1","113","","","","",""
"","html-keyboard-response","229","689794","0.0-3.0-1.112","partial","Female","35","United States of America","","C956836","LB","freqGain","Mozilla/5.0 (Macintosh; Intel Mac OS X 10_14_5) AppleWebKit/537.36 (KHTML, like Gecko) Chrome/81.0.4044.138 Safari/537.36","1.29","","null","","You avoided this hive. You earned <b>0 </b>points.","","113","null","0","94","",""
"","html-button-response","230","690710","0.0-3.0-0.113","partial","Female","35","United States of America","","C956836","LB","freqGain","Mozilla/5.0 (Macintosh; Intel Mac OS X 10_14_5) AppleWebKit/537.36 (KHTML, like Gecko) Chrome/81.0.4044.138 Safari/537.36","1.29","","913","","<img src = 'img/A0-B1-L0-W0.jpg' width = '600'>","1","114","","","","",""
"","html-keyboard-response","231","692714","0.0-3.0-1.113","partial","Female","35","United States of America","","C956836","LB","freqGain","Mozilla/5.0 (Macintosh; Intel Mac OS X 10_14_5) AppleWebKit/537.36 (KHTML, like Gecko) Chrome/81.0.4044.138 Safari/537.36","1.29","","null","","You avoided this hive. You earned <b>0 </b>points.","","114","null","0","94","",""
"","html-button-response","232","693795","0.0-3.0-0.114","partial","Female","35","United States of America","","C956836","LB","freqGain","Mozilla/5.0 (Macintosh; Intel Mac OS X 10_14_5) AppleWebKit/537.36 (KHTML, like Gecko) Chrome/81.0.4044.138 Safari/537.36","1.29","","1079","","<img src = 'img/A1-B0-L0-W0.jpg' width = '600'>","1","115","","","","",""
"","html-keyboard-response","233","695801","0.0-3.0-1.114","partial","Female","35","United States of America","","C956836","LB","freqGain","Mozilla/5.0 (Macintosh; Intel Mac OS X 10_14_5) AppleWebKit/537.36 (KHTML, like Gecko) Chrome/81.0.4044.138 Safari/537.36","1.29","","null","","You avoided this hive. You earned <b>0 </b>points.","","115","null","0","94","",""
"","html-button-response","234","696546","0.0-3.0-0.115","partial","Female","35","United States of America","","C956836","LB","freqGain","Mozilla/5.0 (Macintosh; Intel Mac OS X 10_14_5) AppleWebKit/537.36 (KHTML, like Gecko) Chrome/81.0.4044.138 Safari/537.36","1.29","","744","","<img src = 'img/A0-B0-L0-W0.jpg' width = '600'>","1","116","","","","",""
"","html-keyboard-response","235","698548","0.0-3.0-1.115","partial","Female","35","United States of America","","C956836","LB","freqGain","Mozilla/5.0 (Macintosh; Intel Mac OS X 10_14_5) AppleWebKit/537.36 (KHTML, like Gecko) Chrome/81.0.4044.138 Safari/537.36","1.29","","null","","You avoided this hive. You earned <b>0 </b>points.","","116","null","0","94","",""
"","html-button-response","236","699562","0.0-3.0-0.116","partial","Female","35","United States of America","","C956836","LB","freqGain","Mozilla/5.0 (Macintosh; Intel Mac OS X 10_14_5) AppleWebKit/537.36 (KHTML, like Gecko) Chrome/81.0.4044.138 Safari/537.36","1.29","","1012","","<img src = 'img/A1-B0-L1-W0.jpg' width = '600'>","1","117","","","","",""
"","html-keyboard-response","237","701562","0.0-3.0-1.116","partial","Female","35","United States of America","","C956836","LB","freqGain","Mozilla/5.0 (Macintosh; Intel Mac OS X 10_14_5) AppleWebKit/537.36 (KHTML, like Gecko) Chrome/81.0.4044.138 Safari/537.36","1.29","","null","","You avoided this hive. You earned <b>0 </b>points.","","117","null","0","94","",""
"","html-button-response","238","703094","0.0-3.0-0.117","partial","Female","35","United States of America","","C956836","LB","freqGain","Mozilla/5.0 (Macintosh; Intel Mac OS X 10_14_5) AppleWebKit/537.36 (KHTML, like Gecko) Chrome/81.0.4044.138 Safari/537.36","1.29","","1531","","<img src = 'img/A0-B1-L1-W1.jpg' width = '600'>","0","118","","","","",""
"","html-keyboard-response","239","705096","0.0-3.0-1.117","partial","Female","35","United States of America","","C956836","LB","freqGain","Mozilla/5.0 (Macintosh; Intel Mac OS X 10_14_5) AppleWebKit/537.36 (KHTML, like Gecko) Chrome/81.0.4044.138 Safari/537.36","1.29","","null","","You successfully harvested honey! You earned <b>3 </b>points.","","118","null","3","97","",""
"","html-button-response","240","706159","0.0-3.0-0.118","partial","Female","35","United States of America","","C956836","LB","freqGain","Mozilla/5.0 (Macintosh; Intel Mac OS X 10_14_5) AppleWebKit/537.36 (KHTML, like Gecko) Chrome/81.0.4044.138 Safari/537.36","1.29","","1061","","<img src = 'img/A0-B0-L1-W1.jpg' width = '600'>","1","119","","","","",""
"","html-keyboard-response","241","708162","0.0-3.0-1.118","partial","Female","35","United States of America","","C956836","LB","freqGain","Mozilla/5.0 (Macintosh; Intel Mac OS X 10_14_5) AppleWebKit/537.36 (KHTML, like Gecko) Chrome/81.0.4044.138 Safari/537.36","1.29","","null","","You avoided this hive. You earned <b>0 </b>points.","","119","null","0","97","",""
"","html-button-response","242","709349","0.0-3.0-0.119","partial","Female","35","United States of America","","C956836","LB","freqGain","Mozilla/5.0 (Macintosh; Intel Mac OS X 10_14_5) AppleWebKit/537.36 (KHTML, like Gecko) Chrome/81.0.4044.138 Safari/537.36","1.29","","1186","","<img src = 'img/A0-B1-L1-W0.jpg' width = '600'>","0","120","","","","",""
"","html-keyboard-response","243","711355","0.0-3.0-1.119","partial","Female","35","United States of America","","C956836","LB","freqGain","Mozilla/5.0 (Macintosh; Intel Mac OS X 10_14_5) AppleWebKit/537.36 (KHTML, like Gecko) Chrome/81.0.4044.138 Safari/537.36","1.29","","null","","You successfully harvested honey! You earned <b>3 </b>points.","","120","null","3","100","",""
"","html-button-response","244","714994","0.0-3.0-0.120","partial","Female","35","United States of America","","C956836","LB","freqGain","Mozilla/5.0 (Macintosh; Intel Mac OS X 10_14_5) AppleWebKit/537.36 (KHTML, like Gecko) Chrome/81.0.4044.138 Safari/537.36","1.29","","3638","","<img src = 'img/A1-B1-L0-W0.jpg' width = '600'>","0","121","","","","",""
"","html-keyboard-response","245","717000","0.0-3.0-1.120","partial","Female","35","United States of America","","C956836","LB","freqGain","Mozilla/5.0 (Macintosh; Intel Mac OS X 10_14_5) AppleWebKit/537.36 (KHTML, like Gecko) Chrome/81.0.4044.138 Safari/537.36","1.29","","null","","Ouch, you were stung! You lost <b>-1 </b>point.","","121","null","-1","99","",""
"","html-button-response","246","719356","0.0-3.0-0.121","partial","Female","35","United States of America","","C956836","LB","freqGain","Mozilla/5.0 (Macintosh; Intel Mac OS X 10_14_5) AppleWebKit/537.36 (KHTML, like Gecko) Chrome/81.0.4044.138 Safari/537.36","1.29","","2354","","<img src = 'img/A1-B0-L1-W1.jpg' width = '600'>","1","122","","","","",""
"","html-keyboard-response","247","721362","0.0-3.0-1.121","partial","Female","35","United States of America","","C956836","LB","freqGain","Mozilla/5.0 (Macintosh; Intel Mac OS X 10_14_5) AppleWebKit/537.36 (KHTML, like Gecko) Chrome/81.0.4044.138 Safari/537.36","1.29","","null","","You avoided this hive. You earned <b>0 </b>points.","","122","null","0","99","",""
"","html-button-response","248","723767","0.0-3.0-0.122","partial","Female","35","United States of America","","C956836","LB","freqGain","Mozilla/5.0 (Macintosh; Intel Mac OS X 10_14_5) AppleWebKit/537.36 (KHTML, like Gecko) Chrome/81.0.4044.138 Safari/537.36","1.29","","2403","","<img src = 'img/A0-B0-L0-W1.jpg' width = '600'>","1","123","","","","",""
"","html-keyboard-response","249","725771","0.0-3.0-1.122","partial","Female","35","United States of America","","C956836","LB","freqGain","Mozilla/5.0 (Macintosh; Intel Mac OS X 10_14_5) AppleWebKit/537.36 (KHTML, like Gecko) Chrome/81.0.4044.138 Safari/537.36","1.29","","null","","You avoided this hive. You earned <b>0 </b>points.","","123","null","0","99","",""
"","html-button-response","250","727210","0.0-3.0-0.123","partial","Female","35","United States of America","","C956836","LB","freqGain","Mozilla/5.0 (Macintosh; Intel Mac OS X 10_14_5) AppleWebKit/537.36 (KHTML, like Gecko) Chrome/81.0.4044.138 Safari/537.36","1.29","","1437","","<img src = 'img/A1-B1-L1-W0.jpg' width = '600'>","0","124","","","","",""
"","html-keyboard-response","251","729211","0.0-3.0-1.123","partial","Female","35","United States of America","","C956836","LB","freqGain","Mozilla/5.0 (Macintosh; Intel Mac OS X 10_14_5) AppleWebKit/537.36 (KHTML, like Gecko) Chrome/81.0.4044.138 Safari/537.36","1.29","","null","","You successfully harvested honey! You earned <b>3 </b>points.","","124","null","3","102","",""
"","html-button-response","252","735959","0.0-3.0-0.124","partial","Female","35","United States of America","","C956836","LB","freqGain","Mozilla/5.0 (Macintosh; Intel Mac OS X 10_14_5) AppleWebKit/537.36 (KHTML, like Gecko) Chrome/81.0.4044.138 Safari/537.36","1.29","","6746","","<img src = 'img/A0-B0-L1-W0.jpg' width = '600'>","1","125","","","","",""
"","html-keyboard-response","253","737962","0.0-3.0-1.124","partial","Female","35","United States of America","","C956836","LB","freqGain","Mozilla/5.0 (Macintosh; Intel Mac OS X 10_14_5) AppleWebKit/537.36 (KHTML, like Gecko) Chrome/81.0.4044.138 Safari/537.36","1.29","","null","","You avoided this hive. You earned <b>0 </b>points.","","125","null","0","102","",""
"","html-button-response","254","739760","0.0-3.0-0.125","partial","Female","35","United States of America","","C956836","LB","freqGain","Mozilla/5.0 (Macintosh; Intel Mac OS X 10_14_5) AppleWebKit/537.36 (KHTML, like Gecko) Chrome/81.0.4044.138 Safari/537.36","1.29","","1797","","<img src = 'img/A1-B1-L1-W1.jpg' width = '600'>","0","126","","","","",""
"","html-keyboard-response","255","741765","0.0-3.0-1.125","partial","Female","35","United States of America","","C956836","LB","freqGain","Mozilla/5.0 (Macintosh; Intel Mac OS X 10_14_5) AppleWebKit/537.36 (KHTML, like Gecko) Chrome/81.0.4044.138 Safari/537.36","1.29","","null","","You successfully harvested honey! You earned <b>3 </b>points.","","126","null","3","105","",""
"","html-button-response","256","742966","0.0-3.0-0.126","partial","Female","35","United States of America","","C956836","LB","freqGain","Mozilla/5.0 (Macintosh; Intel Mac OS X 10_14_5) AppleWebKit/537.36 (KHTML, like Gecko) Chrome/81.0.4044.138 Safari/537.36","1.29","","1199","","<img src = 'img/A1-B0-L0-W1.jpg' width = '600'>","1","127","","","","",""
"","html-keyboard-response","257","744970","0.0-3.0-1.126","partial","Female","35","United States of America","","C956836","LB","freqGain","Mozilla/5.0 (Macintosh; Intel Mac OS X 10_14_5) AppleWebKit/537.36 (KHTML, like Gecko) Chrome/81.0.4044.138 Safari/537.36","1.29","","null","","You avoided this hive. You earned <b>0 </b>points.","","127","null","0","105","",""
"","html-button-response","258","746205","0.0-3.0-0.127","partial","Female","35","United States of America","","C956836","LB","freqGain","Mozilla/5.0 (Macintosh; Intel Mac OS X 10_14_5) AppleWebKit/537.36 (KHTML, like Gecko) Chrome/81.0.4044.138 Safari/537.36","1.29","","1234","","<img src = 'img/A1-B1-L0-W1.jpg' width = '600'>","1","128","","","","",""
"","html-keyboard-response","259","748211","0.0-3.0-1.127","partial","Female","35","United States of America","","C956836","LB","freqGain","Mozilla/5.0 (Macintosh; Intel Mac OS X 10_14_5) AppleWebKit/537.36 (KHTML, like Gecko) Chrome/81.0.4044.138 Safari/537.36","1.29","","null","","You avoided this hive. You earned <b>0 </b>points.","","128","null","0","105","",""
"","external-html","260","785643","0.0-4.0","partial","Female","35","United States of America","","C956836","LB","freqGain","Mozilla/5.0 (Macintosh; Intel Mac OS X 10_14_5) AppleWebKit/537.36 (KHTML, like Gecko) Chrome/81.0.4044.138 Safari/537.36","1.29","","36208.554999997374","","","","","","","","./pages/testinstr-fl.html",""
"","html-button-response","261","790865","0.0-5.0-0.0","partial","Female","35","United States of America","","C956836","LB","freqGain","Mozilla/5.0 (Macintosh; Intel Mac OS X 10_14_5) AppleWebKit/537.36 (KHTML, like Gecko) Chrome/81.0.4044.138 Safari/537.36","1.29","","5220","","<img src = 'img/A0-B1-L0-W0.jpg' width = '600'>","1","","","","","","1"
"","html-keyboard-response","262","792269","0.0-5.0-1.0","partial","Female","35","United States of America","","C956836","LB","freqGain","Mozilla/5.0 (Macintosh; Intel Mac OS X 10_14_5) AppleWebKit/537.36 (KHTML, like Gecko) Chrome/81.0.4044.138 Safari/537.36","1.29","","null","","","","","null","0","105","","1"
"","html-button-response","263","793584","0.0-5.0-0.1","partial","Female","35","United States of America","","C956836","LB","freqGain","Mozilla/5.0 (Macintosh; Intel Mac OS X 10_14_5) AppleWebKit/537.36 (KHTML, like Gecko) Chrome/81.0.4044.138 Safari/537.36","1.29","","1313","","<img src = 'img/A0-B0-L0-W1.jpg' width = '600'>","1","","","","","","2"
"","html-keyboard-response","264","794989","0.0-5.0-1.1","partial","Female","35","United States of America","","C956836","LB","freqGain","Mozilla/5.0 (Macintosh; Intel Mac OS X 10_14_5) AppleWebKit/537.36 (KHTML, like Gecko) Chrome/81.0.4044.138 Safari/537.36","1.29","","null","","","","","null","0","105","","2"
"","html-button-response","265","796889","0.0-5.0-0.2","partial","Female","35","United States of America","","C956836","LB","freqGain","Mozilla/5.0 (Macintosh; Intel Mac OS X 10_14_5) AppleWebKit/537.36 (KHTML, like Gecko) Chrome/81.0.4044.138 Safari/537.36","1.29","","1898","","<img src = 'img/A1-B0-L0-W1.jpg' width = '600'>","1","","","","","","3"
"","html-keyboard-response","266","798294","0.0-5.0-1.2","partial","Female","35","United States of America","","C956836","LB","freqGain","Mozilla/5.0 (Macintosh; Intel Mac OS X 10_14_5) AppleWebKit/537.36 (KHTML, like Gecko) Chrome/81.0.4044.138 Safari/537.36","1.29","","null","","","","","null","0","105","","3"
"","html-button-response","267","799958","0.0-5.0-0.3","partial","Female","35","United States of America","","C956836","LB","freqGain","Mozilla/5.0 (Macintosh; Intel Mac OS X 10_14_5) AppleWebKit/537.36 (KHTML, like Gecko) Chrome/81.0.4044.138 Safari/537.36","1.29","","1662","","<img src = 'img/A0-B0-L0-W0.jpg' width = '600'>","1","","","","","","4"
"","html-keyboard-response","268","801362","0.0-5.0-1.3","partial","Female","35","United States of America","","C956836","LB","freqGain","Mozilla/5.0 (Macintosh; Intel Mac OS X 10_14_5) AppleWebKit/537.36 (KHTML, like Gecko) Chrome/81.0.4044.138 Safari/537.36","1.29","","null","","","","","null","0","105","","4"
"","html-button-response","269","802408","0.0-5.0-0.4","partial","Female","35","United States of America","","C956836","LB","freqGain","Mozilla/5.0 (Macintosh; Intel Mac OS X 10_14_5) AppleWebKit/537.36 (KHTML, like Gecko) Chrome/81.0.4044.138 Safari/537.36","1.29","","1043","","<img src = 'img/A1-B1-L0-W1.jpg' width = '600'>","1","","","","","","5"
"","html-keyboard-response","270","803813","0.0-5.0-1.4","partial","Female","35","United States of America","","C956836","LB","freqGain","Mozilla/5.0 (Macintosh; Intel Mac OS X 10_14_5) AppleWebKit/537.36 (KHTML, like Gecko) Chrome/81.0.4044.138 Safari/537.36","1.29","","null","","","","","null","0","105","","5"
"","html-button-response","271","805142","0.0-5.0-0.5","partial","Female","35","United States of America","","C956836","LB","freqGain","Mozilla/5.0 (Macintosh; Intel Mac OS X 10_14_5) AppleWebKit/537.36 (KHTML, like Gecko) Chrome/81.0.4044.138 Safari/537.36","1.29","","1328","","<img src = 'img/A1-B1-L1-W1.jpg' width = '600'>","0","","","","","","6"
"","html-keyboard-response","272","806547","0.0-5.0-1.5","partial","Female","35","United States of America","","C956836","LB","freqGain","Mozilla/5.0 (Macintosh; Intel Mac OS X 10_14_5) AppleWebKit/537.36 (KHTML, like Gecko) Chrome/81.0.4044.138 Safari/537.36","1.29","","null","","","","","null","3","108","","6"
"","html-button-response","273","807983","0.0-5.0-0.6","partial","Female","35","United States of America","","C956836","LB","freqGain","Mozilla/5.0 (Macintosh; Intel Mac OS X 10_14_5) AppleWebKit/537.36 (KHTML, like Gecko) Chrome/81.0.4044.138 Safari/537.36","1.29","","1434","","<img src = 'img/A0-B1-L1-W1.jpg' width = '600'>","0","","","","","","7"
"","html-keyboard-response","274","809384","0.0-5.0-1.6","partial","Female","35","United States of America","","C956836","LB","freqGain","Mozilla/5.0 (Macintosh; Intel Mac OS X 10_14_5) AppleWebKit/537.36 (KHTML, like Gecko) Chrome/81.0.4044.138 Safari/537.36","1.29","","null","","","","","null","3","111","","7"
"","html-button-response","275","810624","0.0-5.0-0.7","partial","Female","35","United States of America","","C956836","LB","freqGain","Mozilla/5.0 (Macintosh; Intel Mac OS X 10_14_5) AppleWebKit/537.36 (KHTML, like Gecko) Chrome/81.0.4044.138 Safari/537.36","1.29","","1237","","<img src = 'img/A1-B0-L0-W0.jpg' width = '600'>","1","","","","","","8"
