"success","trial_type","trial_index","time_elapsed","internal_node_id","feedback","gender","age","country","email","turkcode","relevantDim","condition","browserinfo","bonus","view_history","rt","responses","stimulus","button_pressed","i","key_press","earnedThis","earnedCumulative","url","k"
"true","fullscreen","0","3708","0.0-0.0","full","Male","52","United States of America","","C777566","BW","freqGain","Mozilla/5.0 (Windows NT 10.0; Win64; x64) AppleWebKit/537.36 (KHTML, like Gecko) Chrome/81.0.4044.138 Safari/537.36","1","","","","","","","","","","",""
"","instructions","1","106945","0.0-1.0-0.0","full","Male","52","United States of America","","C777566","BW","freqGain","Mozilla/5.0 (Windows NT 10.0; Win64; x64) AppleWebKit/537.36 (KHTML, like Gecko) Chrome/81.0.4044.138 Safari/537.36","1","[{""page_index"":0,""viewing_time"":13110},{""page_index"":1,""viewing_time"":73086},{""page_index"":2,""viewing_time"":17030}]","103227","","","","","","","","",""
"","survey-html-form","2","141781","0.0-1.0-1.0","full","Male","52","United States of America","","C777566","BW","freqGain","Mozilla/5.0 (Windows NT 10.0; Win64; x64) AppleWebKit/537.36 (KHTML, like Gecko) Chrome/81.0.4044.138 Safari/537.36","1","","34832.73499994539","{""legs"":""checked"",""sting"":""checked"",""wings"":""checked"",""antennae"":""checked"",""change"":""no"",""telldangerous"":""feature"",""avoidinfo"":""info""}","","","","","","","",""
"","html-button-response","3","144145","0.0-1.0-2.0-0.0","full","Male","52","United States of America","","C777566","BW","freqGain","Mozilla/5.0 (Windows NT 10.0; Win64; x64) AppleWebKit/537.36 (KHTML, like Gecko) Chrome/81.0.4044.138 Safari/537.36","1","","2360","","Oh no! One of your answers was incorrect. Let's try again.","0","","","","","",""
"","instructions","4","163377","0.0-1.1-0.1","full","Male","52","United States of America","","C777566","BW","freqGain","Mozilla/5.0 (Windows NT 10.0; Win64; x64) AppleWebKit/537.36 (KHTML, like Gecko) Chrome/81.0.4044.138 Safari/537.36","1","[{""page_index"":0,""viewing_time"":7042},{""page_index"":1,""viewing_time"":2566},{""page_index"":2,""viewing_time"":9622}]","19231","","","","","","","","",""
"","survey-html-form","5","194156","0.0-1.1-1.1","full","Male","52","United States of America","","C777566","BW","freqGain","Mozilla/5.0 (Windows NT 10.0; Win64; x64) AppleWebKit/537.36 (KHTML, like Gecko) Chrome/81.0.4044.138 Safari/537.36","1","","30775.98500001477","{""legs"":""checked"",""body"":""checked"",""wings"":""checked"",""antennae"":""checked"",""change"":""no"",""telldangerous"":""feature"",""avoidinfo"":""info""}","","","","","","","",""
"","html-button-response","6","195785","0.0-2.0","full","Male","52","United States of America","","C777566","BW","freqGain","Mozilla/5.0 (Windows NT 10.0; Win64; x64) AppleWebKit/537.36 (KHTML, like Gecko) Chrome/81.0.4044.138 Safari/537.36","1","","1626","","<p>Well done! This is now the last page of instructions.</p> <p>You're going to start experiment now.</p>","0","","","","","",""
"","html-button-response","7","199101","0.0-3.0-0.0","full","Male","52","United States of America","","C777566","BW","freqGain","Mozilla/5.0 (Windows NT 10.0; Win64; x64) AppleWebKit/537.36 (KHTML, like Gecko) Chrome/81.0.4044.138 Safari/537.36","1","","3310","","<img src = 'img/A0-B0-L1-W1.jpg' width = '600'>","0","1","","","","",""
"","html-keyboard-response","8","201104","0.0-3.0-1.0","full","Male","52","United States of America","","C777566","BW","freqGain","Mozilla/5.0 (Windows NT 10.0; Win64; x64) AppleWebKit/537.36 (KHTML, like Gecko) Chrome/81.0.4044.138 Safari/537.36","1","","null","","Ouch, you were stung! You lost <b>-1 </b>point.","","1","null","-1","49","",""
"","html-button-response","9","204603","0.0-3.0-0.1","full","Male","52","United States of America","","C777566","BW","freqGain","Mozilla/5.0 (Windows NT 10.0; Win64; x64) AppleWebKit/537.36 (KHTML, like Gecko) Chrome/81.0.4044.138 Safari/537.36","1","","3496","","<img src = 'img/A1-B1-L1-W1.jpg' width = '600'>","0","2","","","","",""
"","html-keyboard-response","10","206606","0.0-3.0-1.1","full","Male","52","United States of America","","C777566","BW","freqGain","Mozilla/5.0 (Windows NT 10.0; Win64; x64) AppleWebKit/537.36 (KHTML, like Gecko) Chrome/81.0.4044.138 Safari/537.36","1","","null","","Ouch, you were stung! You lost <b>-1 </b>point.","","2","null","-1","48","",""
"","html-button-response","11","208823","0.0-3.0-0.2","full","Male","52","United States of America","","C777566","BW","freqGain","Mozilla/5.0 (Windows NT 10.0; Win64; x64) AppleWebKit/537.36 (KHTML, like Gecko) Chrome/81.0.4044.138 Safari/537.36","1","","2215","","<img src = 'img/A0-B1-L1-W0.jpg' width = '600'>","0","3","","","","",""
"","html-keyboard-response","12","210826","0.0-3.0-1.2","full","Male","52","United States of America","","C777566","BW","freqGain","Mozilla/5.0 (Windows NT 10.0; Win64; x64) AppleWebKit/537.36 (KHTML, like Gecko) Chrome/81.0.4044.138 Safari/537.36","1","","null","","Ouch, you were stung! You lost <b>-1 </b>point.","","3","null","-1","47","",""
"","html-button-response","13","215059","0.0-3.0-0.3","full","Male","52","United States of America","","C777566","BW","freqGain","Mozilla/5.0 (Windows NT 10.0; Win64; x64) AppleWebKit/537.36 (KHTML, like Gecko) Chrome/81.0.4044.138 Safari/537.36","1","","4231","","<img src = 'img/A1-B0-L0-W0.jpg' width = '600'>","0","4","","","","",""
"","html-keyboard-response","14","217061","0.0-3.0-1.3","full","Male","52","United States of America","","C777566","BW","freqGain","Mozilla/5.0 (Windows NT 10.0; Win64; x64) AppleWebKit/537.36 (KHTML, like Gecko) Chrome/81.0.4044.138 Safari/537.36","1","","null","","Ouch, you were stung! You lost <b>-1 </b>point.","","4","null","-1","46","",""
"","html-button-response","15","223181","0.0-3.0-0.4","full","Male","52","United States of America","","C777566","BW","freqGain","Mozilla/5.0 (Windows NT 10.0; Win64; x64) AppleWebKit/537.36 (KHTML, like Gecko) Chrome/81.0.4044.138 Safari/537.36","1","","6117","","<img src = 'img/A1-B1-L0-W1.jpg' width = '600'>","1","5","","","","",""
"","html-keyboard-response","16","225183","0.0-3.0-1.4","full","Male","52","United States of America","","C777566","BW","freqGain","Mozilla/5.0 (Windows NT 10.0; Win64; x64) AppleWebKit/537.36 (KHTML, like Gecko) Chrome/81.0.4044.138 Safari/537.36","1","","null","","Oops, you avoided a friendly hive. You earned <b>0 </b>points.","","5","null","0","46","",""
"","html-button-response","17","227573","0.0-3.0-0.5","full","Male","52","United States of America","","C777566","BW","freqGain","Mozilla/5.0 (Windows NT 10.0; Win64; x64) AppleWebKit/537.36 (KHTML, like Gecko) Chrome/81.0.4044.138 Safari/537.36","1","","2387","","<img src = 'img/A0-B1-L0-W1.jpg' width = '600'>","0","6","","","","",""
"","html-keyboard-response","18","229574","0.0-3.0-1.5","full","Male","52","United States of America","","C777566","BW","freqGain","Mozilla/5.0 (Windows NT 10.0; Win64; x64) AppleWebKit/537.36 (KHTML, like Gecko) Chrome/81.0.4044.138 Safari/537.36","1","","null","","You successfully harvested honey! You earned <b>3 </b>points.","","6","null","3","49","",""
"","html-button-response","19","233481","0.0-3.0-0.6","full","Male","52","United States of America","","C777566","BW","freqGain","Mozilla/5.0 (Windows NT 10.0; Win64; x64) AppleWebKit/537.36 (KHTML, like Gecko) Chrome/81.0.4044.138 Safari/537.36","1","","3905","","<img src = 'img/A0-B0-L1-W0.jpg' width = '600'>","0","7","","","","",""
"","html-keyboard-response","20","235483","0.0-3.0-1.6","full","Male","52","United States of America","","C777566","BW","freqGain","Mozilla/5.0 (Windows NT 10.0; Win64; x64) AppleWebKit/537.36 (KHTML, like Gecko) Chrome/81.0.4044.138 Safari/537.36","1","","null","","Ouch, you were stung! You lost <b>-1 </b>point.","","7","null","-1","48","",""
"","html-button-response","21","237203","0.0-3.0-0.7","full","Male","52","United States of America","","C777566","BW","freqGain","Mozilla/5.0 (Windows NT 10.0; Win64; x64) AppleWebKit/537.36 (KHTML, like Gecko) Chrome/81.0.4044.138 Safari/537.36","1","","1717","","<img src = 'img/A0-B0-L0-W1.jpg' width = '600'>","0","8","","","","",""
"","html-keyboard-response","22","239205","0.0-3.0-1.7","full","Male","52","United States of America","","C777566","BW","freqGain","Mozilla/5.0 (Windows NT 10.0; Win64; x64) AppleWebKit/537.36 (KHTML, like Gecko) Chrome/81.0.4044.138 Safari/537.36","1","","null","","Ouch, you were stung! You lost <b>-1 </b>point.","","8","null","-1","47","",""
"","html-button-response","23","241993","0.0-3.0-0.8","full","Male","52","United States of America","","C777566","BW","freqGain","Mozilla/5.0 (Windows NT 10.0; Win64; x64) AppleWebKit/537.36 (KHTML, like Gecko) Chrome/81.0.4044.138 Safari/537.36","1","","2786","","<img src = 'img/A1-B0-L1-W0.jpg' width = '600'>","0","9","","","","",""
"","html-keyboard-response","24","243994","0.0-3.0-1.8","full","Male","52","United States of America","","C777566","BW","freqGain","Mozilla/5.0 (Windows NT 10.0; Win64; x64) AppleWebKit/537.36 (KHTML, like Gecko) Chrome/81.0.4044.138 Safari/537.36","1","","null","","Ouch, you were stung! You lost <b>-1 </b>point.","","9","null","-1","46","",""
"","html-button-response","25","245613","0.0-3.0-0.9","full","Male","52","United States of America","","C777566","BW","freqGain","Mozilla/5.0 (Windows NT 10.0; Win64; x64) AppleWebKit/537.36 (KHTML, like Gecko) Chrome/81.0.4044.138 Safari/537.36","1","","1616","","<img src = 'img/A0-B1-L0-W0.jpg' width = '600'>","0","10","","","","",""
"","html-keyboard-response","26","247615","0.0-3.0-1.9","full","Male","52","United States of America","","C777566","BW","freqGain","Mozilla/5.0 (Windows NT 10.0; Win64; x64) AppleWebKit/537.36 (KHTML, like Gecko) Chrome/81.0.4044.138 Safari/537.36","1","","null","","Ouch, you were stung! You lost <b>-1 </b>point.","","10","null","-1","45","",""
"","html-button-response","27","249233","0.0-3.0-0.10","full","Male","52","United States of America","","C777566","BW","freqGain","Mozilla/5.0 (Windows NT 10.0; Win64; x64) AppleWebKit/537.36 (KHTML, like Gecko) Chrome/81.0.4044.138 Safari/537.36","1","","1616","","<img src = 'img/A0-B0-L0-W0.jpg' width = '600'>","0","11","","","","",""
"","html-keyboard-response","28","251235","0.0-3.0-1.10","full","Male","52","United States of America","","C777566","BW","freqGain","Mozilla/5.0 (Windows NT 10.0; Win64; x64) AppleWebKit/537.36 (KHTML, like Gecko) Chrome/81.0.4044.138 Safari/537.36","1","","null","","Ouch, you were stung! You lost <b>-1 </b>point.","","11","null","-1","44","",""
"","html-button-response","29","252673","0.0-3.0-0.11","full","Male","52","United States of America","","C777566","BW","freqGain","Mozilla/5.0 (Windows NT 10.0; Win64; x64) AppleWebKit/537.36 (KHTML, like Gecko) Chrome/81.0.4044.138 Safari/537.36","1","","1436","","<img src = 'img/A1-B0-L1-W1.jpg' width = '600'>","0","12","","","","",""
"","html-keyboard-response","30","254675","0.0-3.0-1.11","full","Male","52","United States of America","","C777566","BW","freqGain","Mozilla/5.0 (Windows NT 10.0; Win64; x64) AppleWebKit/537.36 (KHTML, like Gecko) Chrome/81.0.4044.138 Safari/537.36","1","","null","","Ouch, you were stung! You lost <b>-1 </b>point.","","12","null","-1","43","",""
"","html-button-response","31","256855","0.0-3.0-0.12","full","Male","52","United States of America","","C777566","BW","freqGain","Mozilla/5.0 (Windows NT 10.0; Win64; x64) AppleWebKit/537.36 (KHTML, like Gecko) Chrome/81.0.4044.138 Safari/537.36","1","","2177","","<img src = 'img/A1-B0-L0-W1.jpg' width = '600'>","1","13","","","","",""
"","html-keyboard-response","32","258856","0.0-3.0-1.12","full","Male","52","United States of America","","C777566","BW","freqGain","Mozilla/5.0 (Windows NT 10.0; Win64; x64) AppleWebKit/537.36 (KHTML, like Gecko) Chrome/81.0.4044.138 Safari/537.36","1","","null","","Whew, you avoided being stung! You earned <b>0 </b> points.","","13","null","0","43","",""
"","html-button-response","33","266375","0.0-3.0-0.13","full","Male","52","United States of America","","C777566","BW","freqGain","Mozilla/5.0 (Windows NT 10.0; Win64; x64) AppleWebKit/537.36 (KHTML, like Gecko) Chrome/81.0.4044.138 Safari/537.36","1","","7516","","<img src = 'img/A1-B1-L1-W0.jpg' width = '600'>","1","14","","","","",""
"","html-keyboard-response","34","268377","0.0-3.0-1.13","full","Male","52","United States of America","","C777566","BW","freqGain","Mozilla/5.0 (Windows NT 10.0; Win64; x64) AppleWebKit/537.36 (KHTML, like Gecko) Chrome/81.0.4044.138 Safari/537.36","1","","null","","Whew, you avoided being stung! You earned <b>0 </b> points.","","14","null","0","43","",""
"","html-button-response","35","273281","0.0-3.0-0.14","full","Male","52","United States of America","","C777566","BW","freqGain","Mozilla/5.0 (Windows NT 10.0; Win64; x64) AppleWebKit/537.36 (KHTML, like Gecko) Chrome/81.0.4044.138 Safari/537.36","1","","4903","","<img src = 'img/A0-B1-L1-W1.jpg' width = '600'>","1","15","","","","",""
"","html-keyboard-response","36","275283","0.0-3.0-1.14","full","Male","52","United States of America","","C777566","BW","freqGain","Mozilla/5.0 (Windows NT 10.0; Win64; x64) AppleWebKit/537.36 (KHTML, like Gecko) Chrome/81.0.4044.138 Safari/537.36","1","","null","","Oops, you avoided a friendly hive. You earned <b>0 </b>points.","","15","null","0","43","",""
"","html-button-response","37","277113","0.0-3.0-0.15","full","Male","52","United States of America","","C777566","BW","freqGain","Mozilla/5.0 (Windows NT 10.0; Win64; x64) AppleWebKit/537.36 (KHTML, like Gecko) Chrome/81.0.4044.138 Safari/537.36","1","","1828","","<img src = 'img/A1-B1-L0-W0.jpg' width = '600'>","1","16","","","","",""
"","html-keyboard-response","38","279114","0.0-3.0-1.15","full","Male","52","United States of America","","C777566","BW","freqGain","Mozilla/5.0 (Windows NT 10.0; Win64; x64) AppleWebKit/537.36 (KHTML, like Gecko) Chrome/81.0.4044.138 Safari/537.36","1","","null","","Whew, you avoided being stung! You earned <b>0 </b> points.","","16","null","0","43","",""
"","html-button-response","39","281225","0.0-3.0-0.16","full","Male","52","United States of America","","C777566","BW","freqGain","Mozilla/5.0 (Windows NT 10.0; Win64; x64) AppleWebKit/537.36 (KHTML, like Gecko) Chrome/81.0.4044.138 Safari/537.36","1","","2109","","<img src = 'img/A0-B1-L0-W1.jpg' width = '600'>","1","17","","","","",""
"","html-keyboard-response","40","283228","0.0-3.0-1.16","full","Male","52","United States of America","","C777566","BW","freqGain","Mozilla/5.0 (Windows NT 10.0; Win64; x64) AppleWebKit/537.36 (KHTML, like Gecko) Chrome/81.0.4044.138 Safari/537.36","1","","null","","Oops, you avoided a friendly hive. You earned <b>0 </b>points.","","17","null","0","43","",""
"","html-button-response","41","284689","0.0-3.0-0.17","full","Male","52","United States of America","","C777566","BW","freqGain","Mozilla/5.0 (Windows NT 10.0; Win64; x64) AppleWebKit/537.36 (KHTML, like Gecko) Chrome/81.0.4044.138 Safari/537.36","1","","1459","","<img src = 'img/A1-B0-L0-W0.jpg' width = '600'>","1","18","","","","",""
"","html-keyboard-response","42","286691","0.0-3.0-1.17","full","Male","52","United States of America","","C777566","BW","freqGain","Mozilla/5.0 (Windows NT 10.0; Win64; x64) AppleWebKit/537.36 (KHTML, like Gecko) Chrome/81.0.4044.138 Safari/537.36","1","","null","","Whew, you avoided being stung! You earned <b>0 </b> points.","","18","null","0","43","",""
"","html-button-response","43","287741","0.0-3.0-0.18","full","Male","52","United States of America","","C777566","BW","freqGain","Mozilla/5.0 (Windows NT 10.0; Win64; x64) AppleWebKit/537.36 (KHTML, like Gecko) Chrome/81.0.4044.138 Safari/537.36","1","","1049","","<img src = 'img/A0-B0-L1-W0.jpg' width = '600'>","0","19","","","","",""
"","html-keyboard-response","44","289744","0.0-3.0-1.18","full","Male","52","United States of America","","C777566","BW","freqGain","Mozilla/5.0 (Windows NT 10.0; Win64; x64) AppleWebKit/537.36 (KHTML, like Gecko) Chrome/81.0.4044.138 Safari/537.36","1","","null","","Ouch, you were stung! You lost <b>-1 </b>point.","","19","null","-1","42","",""
"","html-button-response","45","291603","0.0-3.0-0.19","full","Male","52","United States of America","","C777566","BW","freqGain","Mozilla/5.0 (Windows NT 10.0; Win64; x64) AppleWebKit/537.36 (KHTML, like Gecko) Chrome/81.0.4044.138 Safari/537.36","1","","1857","","<img src = 'img/A0-B1-L0-W1.jpg' width = '600'>","0","20","","","","",""
"","html-keyboard-response","46","293604","0.0-3.0-1.19","full","Male","52","United States of America","","C777566","BW","freqGain","Mozilla/5.0 (Windows NT 10.0; Win64; x64) AppleWebKit/537.36 (KHTML, like Gecko) Chrome/81.0.4044.138 Safari/537.36","1","","null","","You successfully harvested honey! You earned <b>3 </b>points.","","20","null","3","45","",""
"","html-button-response","47","296955","0.0-3.0-0.20","full","Male","52","United States of America","","C777566","BW","freqGain","Mozilla/5.0 (Windows NT 10.0; Win64; x64) AppleWebKit/537.36 (KHTML, like Gecko) Chrome/81.0.4044.138 Safari/537.36","1","","3348","","<img src = 'img/A1-B1-L1-W1.jpg' width = '600'>","1","21","","","","",""
"","html-keyboard-response","48","298957","0.0-3.0-1.20","full","Male","52","United States of America","","C777566","BW","freqGain","Mozilla/5.0 (Windows NT 10.0; Win64; x64) AppleWebKit/537.36 (KHTML, like Gecko) Chrome/81.0.4044.138 Safari/537.36","1","","null","","Whew, you avoided being stung! You earned <b>0 </b> points.","","21","null","0","45","",""
"","html-button-response","49","300685","0.0-3.0-0.21","full","Male","52","United States of America","","C777566","BW","freqGain","Mozilla/5.0 (Windows NT 10.0; Win64; x64) AppleWebKit/537.36 (KHTML, like Gecko) Chrome/81.0.4044.138 Safari/537.36","1","","1726","","<img src = 'img/A0-B0-L0-W1.jpg' width = '600'>","0","22","","","","",""
"","html-keyboard-response","50","302686","0.0-3.0-1.21","full","Male","52","United States of America","","C777566","BW","freqGain","Mozilla/5.0 (Windows NT 10.0; Win64; x64) AppleWebKit/537.36 (KHTML, like Gecko) Chrome/81.0.4044.138 Safari/537.36","1","","null","","Ouch, you were stung! You lost <b>-1 </b>point.","","22","null","-1","44","",""
"","html-button-response","51","304555","0.0-3.0-0.22","full","Male","52","United States of America","","C777566","BW","freqGain","Mozilla/5.0 (Windows NT 10.0; Win64; x64) AppleWebKit/537.36 (KHTML, like Gecko) Chrome/81.0.4044.138 Safari/537.36","1","","1866","","<img src = 'img/A1-B1-L0-W1.jpg' width = '600'>","1","23","","","","",""
"","html-keyboard-response","52","306557","0.0-3.0-1.22","full","Male","52","United States of America","","C777566","BW","freqGain","Mozilla/5.0 (Windows NT 10.0; Win64; x64) AppleWebKit/537.36 (KHTML, like Gecko) Chrome/81.0.4044.138 Safari/537.36","1","","null","","Oops, you avoided a friendly hive. You earned <b>0 </b>points.","","23","null","0","44","",""
"","html-button-response","53","309399","0.0-3.0-0.23","full","Male","52","United States of America","","C777566","BW","freqGain","Mozilla/5.0 (Windows NT 10.0; Win64; x64) AppleWebKit/537.36 (KHTML, like Gecko) Chrome/81.0.4044.138 Safari/537.36","1","","2841","","<img src = 'img/A1-B1-L1-W0.jpg' width = '600'>","0","24","","","","",""
"","html-keyboard-response","54","311401","0.0-3.0-1.23","full","Male","52","United States of America","","C777566","BW","freqGain","Mozilla/5.0 (Windows NT 10.0; Win64; x64) AppleWebKit/537.36 (KHTML, like Gecko) Chrome/81.0.4044.138 Safari/537.36","1","","null","","Ouch, you were stung! You lost <b>-1 </b>point.","","24","null","-1","43","",""
"","html-button-response","55","313293","0.0-3.0-0.24","full","Male","52","United States of America","","C777566","BW","freqGain","Mozilla/5.0 (Windows NT 10.0; Win64; x64) AppleWebKit/537.36 (KHTML, like Gecko) Chrome/81.0.4044.138 Safari/537.36","1","","1889","","<img src = 'img/A0-B1-L1-W0.jpg' width = '600'>","0","25","","","","",""
"","html-keyboard-response","56","315294","0.0-3.0-1.24","full","Male","52","United States of America","","C777566","BW","freqGain","Mozilla/5.0 (Windows NT 10.0; Win64; x64) AppleWebKit/537.36 (KHTML, like Gecko) Chrome/81.0.4044.138 Safari/537.36","1","","null","","Ouch, you were stung! You lost <b>-1 </b>point.","","25","null","-1","42","",""
"","html-button-response","57","318691","0.0-3.0-0.25","full","Male","52","United States of America","","C777566","BW","freqGain","Mozilla/5.0 (Windows NT 10.0; Win64; x64) AppleWebKit/537.36 (KHTML, like Gecko) Chrome/81.0.4044.138 Safari/537.36","1","","3395","","<img src = 'img/A0-B1-L1-W1.jpg' width = '600'>","1","26","","","","",""
"","html-keyboard-response","58","320693","0.0-3.0-1.25","full","Male","52","United States of America","","C777566","BW","freqGain","Mozilla/5.0 (Windows NT 10.0; Win64; x64) AppleWebKit/537.36 (KHTML, like Gecko) Chrome/81.0.4044.138 Safari/537.36","1","","null","","Oops, you avoided a friendly hive. You earned <b>0 </b>points.","","26","null","0","42","",""
"","html-button-response","59","324059","0.0-3.0-0.26","full","Male","52","United States of America","","C777566","BW","freqGain","Mozilla/5.0 (Windows NT 10.0; Win64; x64) AppleWebKit/537.36 (KHTML, like Gecko) Chrome/81.0.4044.138 Safari/537.36","1","","3364","","<img src = 'img/A0-B0-L0-W0.jpg' width = '600'>","0","27","","","","",""
"","html-keyboard-response","60","326061","0.0-3.0-1.26","full","Male","52","United States of America","","C777566","BW","freqGain","Mozilla/5.0 (Windows NT 10.0; Win64; x64) AppleWebKit/537.36 (KHTML, like Gecko) Chrome/81.0.4044.138 Safari/537.36","1","","null","","Ouch, you were stung! You lost <b>-1 </b>point.","","27","null","-1","41","",""
"","html-button-response","61","328271","0.0-3.0-0.27","full","Male","52","United States of America","","C777566","BW","freqGain","Mozilla/5.0 (Windows NT 10.0; Win64; x64) AppleWebKit/537.36 (KHTML, like Gecko) Chrome/81.0.4044.138 Safari/537.36","1","","2209","","<img src = 'img/A0-B1-L0-W1.jpg' width = '600'>","0","28","","","","",""
"","html-keyboard-response","62","330273","0.0-3.0-1.27","full","Male","52","United States of America","","C777566","BW","freqGain","Mozilla/5.0 (Windows NT 10.0; Win64; x64) AppleWebKit/537.36 (KHTML, like Gecko) Chrome/81.0.4044.138 Safari/537.36","1","","null","","You successfully harvested honey! You earned <b>3 </b>points.","","28","null","3","44","",""
"","html-button-response","63","331977","0.0-3.0-0.28","full","Male","52","United States of America","","C777566","BW","freqGain","Mozilla/5.0 (Windows NT 10.0; Win64; x64) AppleWebKit/537.36 (KHTML, like Gecko) Chrome/81.0.4044.138 Safari/537.36","1","","1703","","<img src = 'img/A1-B0-L1-W0.jpg' width = '600'>","1","29","","","","",""
"","html-keyboard-response","64","333979","0.0-3.0-1.28","full","Male","52","United States of America","","C777566","BW","freqGain","Mozilla/5.0 (Windows NT 10.0; Win64; x64) AppleWebKit/537.36 (KHTML, like Gecko) Chrome/81.0.4044.138 Safari/537.36","1","","null","","Whew, you avoided being stung! You earned <b>0 </b> points.","","29","null","0","44","",""
"","html-button-response","65","336215","0.0-3.0-0.29","full","Male","52","United States of America","","C777566","BW","freqGain","Mozilla/5.0 (Windows NT 10.0; Win64; x64) AppleWebKit/537.36 (KHTML, like Gecko) Chrome/81.0.4044.138 Safari/537.36","1","","2235","","<img src = 'img/A1-B0-L0-W1.jpg' width = '600'>","1","30","","","","",""
"","html-keyboard-response","66","338217","0.0-3.0-1.29","full","Male","52","United States of America","","C777566","BW","freqGain","Mozilla/5.0 (Windows NT 10.0; Win64; x64) AppleWebKit/537.36 (KHTML, like Gecko) Chrome/81.0.4044.138 Safari/537.36","1","","null","","Whew, you avoided being stung! You earned <b>0 </b> points.","","30","null","0","44","",""
"","html-button-response","67","339343","0.0-3.0-0.30","full","Male","52","United States of America","","C777566","BW","freqGain","Mozilla/5.0 (Windows NT 10.0; Win64; x64) AppleWebKit/537.36 (KHTML, like Gecko) Chrome/81.0.4044.138 Safari/537.36","1","","1125","","<img src = 'img/A1-B1-L0-W0.jpg' width = '600'>","1","31","","","","",""
"","html-keyboard-response","68","341346","0.0-3.0-1.30","full","Male","52","United States of America","","C777566","BW","freqGain","Mozilla/5.0 (Windows NT 10.0; Win64; x64) AppleWebKit/537.36 (KHTML, like Gecko) Chrome/81.0.4044.138 Safari/537.36","1","","null","","Whew, you avoided being stung! You earned <b>0 </b> points.","","31","null","0","44","",""
"","html-button-response","69","343525","0.0-3.0-0.31","full","Male","52","United States of America","","C777566","BW","freqGain","Mozilla/5.0 (Windows NT 10.0; Win64; x64) AppleWebKit/537.36 (KHTML, like Gecko) Chrome/81.0.4044.138 Safari/537.36","1","","2178","","<img src = 'img/A0-B1-L0-W0.jpg' width = '600'>","1","32","","","","",""
"","html-keyboard-response","70","345527","0.0-3.0-1.31","full","Male","52","United States of America","","C777566","BW","freqGain","Mozilla/5.0 (Windows NT 10.0; Win64; x64) AppleWebKit/537.36 (KHTML, like Gecko) Chrome/81.0.4044.138 Safari/537.36","1","","null","","Whew, you avoided being stung! You earned <b>0 </b> points.","","32","null","0","44","",""
"","html-button-response","71","347147","0.0-3.0-0.32","full","Male","52","United States of America","","C777566","BW","freqGain","Mozilla/5.0 (Windows NT 10.0; Win64; x64) AppleWebKit/537.36 (KHTML, like Gecko) Chrome/81.0.4044.138 Safari/537.36","1","","1618","","<img src = 'img/A0-B0-L1-W1.jpg' width = '600'>","0","33","","","","",""
"","html-keyboard-response","72","349149","0.0-3.0-1.32","full","Male","52","United States of America","","C777566","BW","freqGain","Mozilla/5.0 (Windows NT 10.0; Win64; x64) AppleWebKit/537.36 (KHTML, like Gecko) Chrome/81.0.4044.138 Safari/537.36","1","","null","","Ouch, you were stung! You lost <b>-1 </b>point.","","33","null","-1","43","",""
"","html-button-response","73","353091","0.0-3.0-0.33","full","Male","52","United States of America","","C777566","BW","freqGain","Mozilla/5.0 (Windows NT 10.0; Win64; x64) AppleWebKit/537.36 (KHTML, like Gecko) Chrome/81.0.4044.138 Safari/537.36","1","","3939","","<img src = 'img/A1-B0-L1-W1.jpg' width = '600'>","1","34","","","","",""
"","html-keyboard-response","74","355093","0.0-3.0-1.33","full","Male","52","United States of America","","C777566","BW","freqGain","Mozilla/5.0 (Windows NT 10.0; Win64; x64) AppleWebKit/537.36 (KHTML, like Gecko) Chrome/81.0.4044.138 Safari/537.36","1","","null","","Whew, you avoided being stung! You earned <b>0 </b> points.","","34","null","0","43","",""
"","html-button-response","75","357203","0.0-3.0-0.34","full","Male","52","United States of America","","C777566","BW","freqGain","Mozilla/5.0 (Windows NT 10.0; Win64; x64) AppleWebKit/537.36 (KHTML, like Gecko) Chrome/81.0.4044.138 Safari/537.36","1","","2108","","<img src = 'img/A1-B0-L1-W0.jpg' width = '600'>","1","35","","","","",""
"","html-keyboard-response","76","359204","0.0-3.0-1.34","full","Male","52","United States of America","","C777566","BW","freqGain","Mozilla/5.0 (Windows NT 10.0; Win64; x64) AppleWebKit/537.36 (KHTML, like Gecko) Chrome/81.0.4044.138 Safari/537.36","1","","null","","Whew, you avoided being stung! You earned <b>0 </b> points.","","35","null","0","43","",""
"","html-button-response","77","362501","0.0-3.0-0.35","full","Male","52","United States of America","","C777566","BW","freqGain","Mozilla/5.0 (Windows NT 10.0; Win64; x64) AppleWebKit/537.36 (KHTML, like Gecko) Chrome/81.0.4044.138 Safari/537.36","1","","3295","","<img src = 'img/A0-B1-L1-W1.jpg' width = '600'>","0","36","","","","",""
"","html-keyboard-response","78","364504","0.0-3.0-1.35","full","Male","52","United States of America","","C777566","BW","freqGain","Mozilla/5.0 (Windows NT 10.0; Win64; x64) AppleWebKit/537.36 (KHTML, like Gecko) Chrome/81.0.4044.138 Safari/537.36","1","","null","","You successfully harvested honey! You earned <b>3 </b>points.","","36","null","3","46","",""
"","html-button-response","79","368050","0.0-3.0-0.36","full","Male","52","United States of America","","C777566","BW","freqGain","Mozilla/5.0 (Windows NT 10.0; Win64; x64) AppleWebKit/537.36 (KHTML, like Gecko) Chrome/81.0.4044.138 Safari/537.36","1","","3544","","<img src = 'img/A0-B0-L1-W1.jpg' width = '600'>","0","37","","","","",""
"","html-keyboard-response","80","370051","0.0-3.0-1.36","full","Male","52","United States of America","","C777566","BW","freqGain","Mozilla/5.0 (Windows NT 10.0; Win64; x64) AppleWebKit/537.36 (KHTML, like Gecko) Chrome/81.0.4044.138 Safari/537.36","1","","null","","Ouch, you were stung! You lost <b>-1 </b>point.","","37","null","-1","45","",""
"","html-button-response","81","372643","0.0-3.0-0.37","full","Male","52","United States of America","","C777566","BW","freqGain","Mozilla/5.0 (Windows NT 10.0; Win64; x64) AppleWebKit/537.36 (KHTML, like Gecko) Chrome/81.0.4044.138 Safari/537.36","1","","2590","","<img src = 'img/A1-B1-L0-W1.jpg' width = '600'>","1","38","","","","",""
"","html-keyboard-response","82","374645","0.0-3.0-1.37","full","Male","52","United States of America","","C777566","BW","freqGain","Mozilla/5.0 (Windows NT 10.0; Win64; x64) AppleWebKit/537.36 (KHTML, like Gecko) Chrome/81.0.4044.138 Safari/537.36","1","","null","","Oops, you avoided a friendly hive. You earned <b>0 </b>points.","","38","null","0","45","",""
"","html-button-response","83","376139","0.0-3.0-0.38","full","Male","52","United States of America","","C777566","BW","freqGain","Mozilla/5.0 (Windows NT 10.0; Win64; x64) AppleWebKit/537.36 (KHTML, like Gecko) Chrome/81.0.4044.138 Safari/537.36","1","","1492","","<img src = 'img/A1-B1-L1-W0.jpg' width = '600'>","1","39","","","","",""
"","html-keyboard-response","84","378141","0.0-3.0-1.38","full","Male","52","United States of America","","C777566","BW","freqGain","Mozilla/5.0 (Windows NT 10.0; Win64; x64) AppleWebKit/537.36 (KHTML, like Gecko) Chrome/81.0.4044.138 Safari/537.36","1","","null","","Whew, you avoided being stung! You earned <b>0 </b> points.","","39","null","0","45","",""
"","html-button-response","85","382359","0.0-3.0-0.39","full","Male","52","United States of America","","C777566","BW","freqGain","Mozilla/5.0 (Windows NT 10.0; Win64; x64) AppleWebKit/537.36 (KHTML, like Gecko) Chrome/81.0.4044.138 Safari/537.36","1","","4215","","<img src = 'img/A1-B1-L1-W1.jpg' width = '600'>","1","40","","","","",""
"","html-keyboard-response","86","384362","0.0-3.0-1.39","full","Male","52","United States of America","","C777566","BW","freqGain","Mozilla/5.0 (Windows NT 10.0; Win64; x64) AppleWebKit/537.36 (KHTML, like Gecko) Chrome/81.0.4044.138 Safari/537.36","1","","null","","Whew, you avoided being stung! You earned <b>0 </b> points.","","40","null","0","45","",""
"","html-button-response","87","386810","0.0-3.0-0.40","full","Male","52","United States of America","","C777566","BW","freqGain","Mozilla/5.0 (Windows NT 10.0; Win64; x64) AppleWebKit/537.36 (KHTML, like Gecko) Chrome/81.0.4044.138 Safari/537.36","1","","2446","","<img src = 'img/A0-B0-L0-W1.jpg' width = '600'>","1","41","","","","",""
"","html-keyboard-response","88","388817","0.0-3.0-1.40","full","Male","52","United States of America","","C777566","BW","freqGain","Mozilla/5.0 (Windows NT 10.0; Win64; x64) AppleWebKit/537.36 (KHTML, like Gecko) Chrome/81.0.4044.138 Safari/537.36","1","","null","","Whew, you avoided being stung! You earned <b>0 </b> points.","","41","null","0","45","",""
"","html-button-response","89","390621","0.0-3.0-0.41","full","Male","52","United States of America","","C777566","BW","freqGain","Mozilla/5.0 (Windows NT 10.0; Win64; x64) AppleWebKit/537.36 (KHTML, like Gecko) Chrome/81.0.4044.138 Safari/537.36","1","","1803","","<img src = 'img/A1-B0-L1-W1.jpg' width = '600'>","1","42","","","","",""
"","html-keyboard-response","90","392623","0.0-3.0-1.41","full","Male","52","United States of America","","C777566","BW","freqGain","Mozilla/5.0 (Windows NT 10.0; Win64; x64) AppleWebKit/537.36 (KHTML, like Gecko) Chrome/81.0.4044.138 Safari/537.36","1","","null","","Whew, you avoided being stung! You earned <b>0 </b> points.","","42","null","0","45","",""
"","html-button-response","91","394344","0.0-3.0-0.42","full","Male","52","United States of America","","C777566","BW","freqGain","Mozilla/5.0 (Windows NT 10.0; Win64; x64) AppleWebKit/537.36 (KHTML, like Gecko) Chrome/81.0.4044.138 Safari/537.36","1","","1718","","<img src = 'img/A0-B1-L1-W0.jpg' width = '600'>","1","43","","","","",""
"","html-keyboard-response","92","396347","0.0-3.0-1.42","full","Male","52","United States of America","","C777566","BW","freqGain","Mozilla/5.0 (Windows NT 10.0; Win64; x64) AppleWebKit/537.36 (KHTML, like Gecko) Chrome/81.0.4044.138 Safari/537.36","1","","null","","Whew, you avoided being stung! You earned <b>0 </b> points.","","43","null","0","45","",""
"","html-button-response","93","397433","0.0-3.0-0.43","full","Male","52","United States of America","","C777566","BW","freqGain","Mozilla/5.0 (Windows NT 10.0; Win64; x64) AppleWebKit/537.36 (KHTML, like Gecko) Chrome/81.0.4044.138 Safari/537.36","1","","1084","","<img src = 'img/A1-B0-L0-W0.jpg' width = '600'>","1","44","","","","",""
"","html-keyboard-response","94","399435","0.0-3.0-1.43","full","Male","52","United States of America","","C777566","BW","freqGain","Mozilla/5.0 (Windows NT 10.0; Win64; x64) AppleWebKit/537.36 (KHTML, like Gecko) Chrome/81.0.4044.138 Safari/537.36","1","","null","","Whew, you avoided being stung! You earned <b>0 </b> points.","","44","null","0","45","",""
"","html-button-response","95","400577","0.0-3.0-0.44","full","Male","52","United States of America","","C777566","BW","freqGain","Mozilla/5.0 (Windows NT 10.0; Win64; x64) AppleWebKit/537.36 (KHTML, like Gecko) Chrome/81.0.4044.138 Safari/537.36","1","","1141","","<img src = 'img/A0-B0-L0-W0.jpg' width = '600'>","1","45","","","","",""
"","html-keyboard-response","96","402579","0.0-3.0-1.44","full","Male","52","United States of America","","C777566","BW","freqGain","Mozilla/5.0 (Windows NT 10.0; Win64; x64) AppleWebKit/537.36 (KHTML, like Gecko) Chrome/81.0.4044.138 Safari/537.36","1","","null","","Whew, you avoided being stung! You earned <b>0 </b> points.","","45","null","0","45","",""
"","html-button-response","97","405619","0.0-3.0-0.45","full","Male","52","United States of America","","C777566","BW","freqGain","Mozilla/5.0 (Windows NT 10.0; Win64; x64) AppleWebKit/537.36 (KHTML, like Gecko) Chrome/81.0.4044.138 Safari/537.36","1","","3038","","<img src = 'img/A0-B1-L0-W1.jpg' width = '600'>","1","46","","","","",""
"","html-keyboard-response","98","407621","0.0-3.0-1.45","full","Male","52","United States of America","","C777566","BW","freqGain","Mozilla/5.0 (Windows NT 10.0; Win64; x64) AppleWebKit/537.36 (KHTML, like Gecko) Chrome/81.0.4044.138 Safari/537.36","1","","null","","Oops, you avoided a friendly hive. You earned <b>0 </b>points.","","46","null","0","45","",""
"","html-button-response","99","409191","0.0-3.0-0.46","full","Male","52","United States of America","","C777566","BW","freqGain","Mozilla/5.0 (Windows NT 10.0; Win64; x64) AppleWebKit/537.36 (KHTML, like Gecko) Chrome/81.0.4044.138 Safari/537.36","1","","1568","","<img src = 'img/A0-B1-L0-W1.jpg' width = '600'>","1","47","","","","",""
"","html-keyboard-response","100","411192","0.0-3.0-1.46","full","Male","52","United States of America","","C777566","BW","freqGain","Mozilla/5.0 (Windows NT 10.0; Win64; x64) AppleWebKit/537.36 (KHTML, like Gecko) Chrome/81.0.4044.138 Safari/537.36","1","","null","","Oops, you avoided a friendly hive. You earned <b>0 </b>points.","","47","null","0","45","",""
"","html-button-response","101","412875","0.0-3.0-0.47","full","Male","52","United States of America","","C777566","BW","freqGain","Mozilla/5.0 (Windows NT 10.0; Win64; x64) AppleWebKit/537.36 (KHTML, like Gecko) Chrome/81.0.4044.138 Safari/537.36","1","","1681","","<img src = 'img/A0-B0-L1-W0.jpg' width = '600'>","1","48","","","","",""
"","html-keyboard-response","102","414877","0.0-3.0-1.47","full","Male","52","United States of America","","C777566","BW","freqGain","Mozilla/5.0 (Windows NT 10.0; Win64; x64) AppleWebKit/537.36 (KHTML, like Gecko) Chrome/81.0.4044.138 Safari/537.36","1","","null","","Whew, you avoided being stung! You earned <b>0 </b> points.","","48","null","0","45","",""
"","html-button-response","103","416049","0.0-3.0-0.48","full","Male","52","United States of America","","C777566","BW","freqGain","Mozilla/5.0 (Windows NT 10.0; Win64; x64) AppleWebKit/537.36 (KHTML, like Gecko) Chrome/81.0.4044.138 Safari/537.36","1","","1171","","<img src = 'img/A1-B1-L0-W0.jpg' width = '600'>","1","49","","","","",""
"","html-keyboard-response","104","418051","0.0-3.0-1.48","full","Male","52","United States of America","","C777566","BW","freqGain","Mozilla/5.0 (Windows NT 10.0; Win64; x64) AppleWebKit/537.36 (KHTML, like Gecko) Chrome/81.0.4044.138 Safari/537.36","1","","null","","Whew, you avoided being stung! You earned <b>0 </b> points.","","49","null","0","45","",""
"","html-button-response","105","419755","0.0-3.0-0.49","full","Male","52","United States of America","","C777566","BW","freqGain","Mozilla/5.0 (Windows NT 10.0; Win64; x64) AppleWebKit/537.36 (KHTML, like Gecko) Chrome/81.0.4044.138 Safari/537.36","1","","1702","","<img src = 'img/A1-B0-L0-W1.jpg' width = '600'>","0","50","","","","",""
"","html-keyboard-response","106","421756","0.0-3.0-1.49","full","Male","52","United States of America","","C777566","BW","freqGain","Mozilla/5.0 (Windows NT 10.0; Win64; x64) AppleWebKit/537.36 (KHTML, like Gecko) Chrome/81.0.4044.138 Safari/537.36","1","","null","","Ouch, you were stung! You lost <b>-1 </b>point.","","50","null","-1","44","",""
"","html-button-response","107","422985","0.0-3.0-0.50","full","Male","52","United States of America","","C777566","BW","freqGain","Mozilla/5.0 (Windows NT 10.0; Win64; x64) AppleWebKit/537.36 (KHTML, like Gecko) Chrome/81.0.4044.138 Safari/537.36","1","","1228","","<img src = 'img/A0-B1-L0-W0.jpg' width = '600'>","1","51","","","","",""
"","html-keyboard-response","108","424988","0.0-3.0-1.50","full","Male","52","United States of America","","C777566","BW","freqGain","Mozilla/5.0 (Windows NT 10.0; Win64; x64) AppleWebKit/537.36 (KHTML, like Gecko) Chrome/81.0.4044.138 Safari/537.36","1","","null","","Whew, you avoided being stung! You earned <b>0 </b> points.","","51","null","0","44","",""
"","html-button-response","109","426785","0.0-3.0-0.51","full","Male","52","United States of America","","C777566","BW","freqGain","Mozilla/5.0 (Windows NT 10.0; Win64; x64) AppleWebKit/537.36 (KHTML, like Gecko) Chrome/81.0.4044.138 Safari/537.36","1","","1796","","<img src = 'img/A1-B1-L0-W1.jpg' width = '600'>","0","52","","","","",""
"","html-keyboard-response","110","428787","0.0-3.0-1.51","full","Male","52","United States of America","","C777566","BW","freqGain","Mozilla/5.0 (Windows NT 10.0; Win64; x64) AppleWebKit/537.36 (KHTML, like Gecko) Chrome/81.0.4044.138 Safari/537.36","1","","null","","You successfully harvested honey! You earned <b>3 </b>points.","","52","null","3","47","",""
"","html-button-response","111","430867","0.0-3.0-0.52","full","Male","52","United States of America","","C777566","BW","freqGain","Mozilla/5.0 (Windows NT 10.0; Win64; x64) AppleWebKit/537.36 (KHTML, like Gecko) Chrome/81.0.4044.138 Safari/537.36","1","","2078","","<img src = 'img/A0-B1-L0-W0.jpg' width = '600'>","1","53","","","","",""
"","html-keyboard-response","112","432869","0.0-3.0-1.52","full","Male","52","United States of America","","C777566","BW","freqGain","Mozilla/5.0 (Windows NT 10.0; Win64; x64) AppleWebKit/537.36 (KHTML, like Gecko) Chrome/81.0.4044.138 Safari/537.36","1","","null","","Whew, you avoided being stung! You earned <b>0 </b> points.","","53","null","0","47","",""
"","html-button-response","113","434719","0.0-3.0-0.53","full","Male","52","United States of America","","C777566","BW","freqGain","Mozilla/5.0 (Windows NT 10.0; Win64; x64) AppleWebKit/537.36 (KHTML, like Gecko) Chrome/81.0.4044.138 Safari/537.36","1","","1849","","<img src = 'img/A0-B0-L1-W1.jpg' width = '600'>","0","54","","","","",""
"","html-keyboard-response","114","436721","0.0-3.0-1.53","full","Male","52","United States of America","","C777566","BW","freqGain","Mozilla/5.0 (Windows NT 10.0; Win64; x64) AppleWebKit/537.36 (KHTML, like Gecko) Chrome/81.0.4044.138 Safari/537.36","1","","null","","Ouch, you were stung! You lost <b>-1 </b>point.","","54","null","-1","46","",""
"","html-button-response","115","438737","0.0-3.0-0.54","full","Male","52","United States of America","","C777566","BW","freqGain","Mozilla/5.0 (Windows NT 10.0; Win64; x64) AppleWebKit/537.36 (KHTML, like Gecko) Chrome/81.0.4044.138 Safari/537.36","1","","2014","","<img src = 'img/A0-B0-L0-W1.jpg' width = '600'>","0","55","","","","",""
"","html-keyboard-response","116","440739","0.0-3.0-1.54","full","Male","52","United States of America","","C777566","BW","freqGain","Mozilla/5.0 (Windows NT 10.0; Win64; x64) AppleWebKit/537.36 (KHTML, like Gecko) Chrome/81.0.4044.138 Safari/537.36","1","","null","","Ouch, you were stung! You lost <b>-1 </b>point.","","55","null","-1","45","",""
"","html-button-response","117","442185","0.0-3.0-0.55","full","Male","52","United States of America","","C777566","BW","freqGain","Mozilla/5.0 (Windows NT 10.0; Win64; x64) AppleWebKit/537.36 (KHTML, like Gecko) Chrome/81.0.4044.138 Safari/537.36","1","","1444","","<img src = 'img/A0-B1-L1-W1.jpg' width = '600'>","0","56","","","","",""
"","html-keyboard-response","118","444186","0.0-3.0-1.55","full","Male","52","United States of America","","C777566","BW","freqGain","Mozilla/5.0 (Windows NT 10.0; Win64; x64) AppleWebKit/537.36 (KHTML, like Gecko) Chrome/81.0.4044.138 Safari/537.36","1","","null","","You successfully harvested honey! You earned <b>3 </b>points.","","56","null","3","48","",""
"","html-button-response","119","446523","0.0-3.0-0.56","full","Male","52","United States of America","","C777566","BW","freqGain","Mozilla/5.0 (Windows NT 10.0; Win64; x64) AppleWebKit/537.36 (KHTML, like Gecko) Chrome/81.0.4044.138 Safari/537.36","1","","2335","","<img src = 'img/A1-B0-L0-W1.jpg' width = '600'>","1","57","","","","",""
"","html-keyboard-response","120","448525","0.0-3.0-1.56","full","Male","52","United States of America","","C777566","BW","freqGain","Mozilla/5.0 (Windows NT 10.0; Win64; x64) AppleWebKit/537.36 (KHTML, like Gecko) Chrome/81.0.4044.138 Safari/537.36","1","","null","","Whew, you avoided being stung! You earned <b>0 </b> points.","","57","null","0","48","",""
"","html-button-response","121","450915","0.0-3.0-0.57","full","Male","52","United States of America","","C777566","BW","freqGain","Mozilla/5.0 (Windows NT 10.0; Win64; x64) AppleWebKit/537.36 (KHTML, like Gecko) Chrome/81.0.4044.138 Safari/537.36","1","","2388","","<img src = 'img/A1-B0-L1-W1.jpg' width = '600'>","1","58","","","","",""
"","html-keyboard-response","122","452917","0.0-3.0-1.57","full","Male","52","United States of America","","C777566","BW","freqGain","Mozilla/5.0 (Windows NT 10.0; Win64; x64) AppleWebKit/537.36 (KHTML, like Gecko) Chrome/81.0.4044.138 Safari/537.36","1","","null","","Whew, you avoided being stung! You earned <b>0 </b> points.","","58","null","0","48","",""
"","html-button-response","123","454247","0.0-3.0-0.58","full","Male","52","United States of America","","C777566","BW","freqGain","Mozilla/5.0 (Windows NT 10.0; Win64; x64) AppleWebKit/537.36 (KHTML, like Gecko) Chrome/81.0.4044.138 Safari/537.36","1","","1328","","<img src = 'img/A1-B1-L1-W0.jpg' width = '600'>","1","59","","","","",""
"","html-keyboard-response","124","456248","0.0-3.0-1.58","full","Male","52","United States of America","","C777566","BW","freqGain","Mozilla/5.0 (Windows NT 10.0; Win64; x64) AppleWebKit/537.36 (KHTML, like Gecko) Chrome/81.0.4044.138 Safari/537.36","1","","null","","Whew, you avoided being stung! You earned <b>0 </b> points.","","59","null","0","48","",""
"","html-button-response","125","458053","0.0-3.0-0.59","full","Male","52","United States of America","","C777566","BW","freqGain","Mozilla/5.0 (Windows NT 10.0; Win64; x64) AppleWebKit/537.36 (KHTML, like Gecko) Chrome/81.0.4044.138 Safari/537.36","1","","1802","","<img src = 'img/A0-B1-L0-W1.jpg' width = '600'>","1","60","","","","",""
"","html-keyboard-response","126","460055","0.0-3.0-1.59","full","Male","52","United States of America","","C777566","BW","freqGain","Mozilla/5.0 (Windows NT 10.0; Win64; x64) AppleWebKit/537.36 (KHTML, like Gecko) Chrome/81.0.4044.138 Safari/537.36","1","","null","","Oops, you avoided a friendly hive. You earned <b>0 </b>points.","","60","null","0","48","",""
"","html-button-response","127","461423","0.0-3.0-0.60","full","Male","52","United States of America","","C777566","BW","freqGain","Mozilla/5.0 (Windows NT 10.0; Win64; x64) AppleWebKit/537.36 (KHTML, like Gecko) Chrome/81.0.4044.138 Safari/537.36","1","","1365","","<img src = 'img/A1-B1-L0-W0.jpg' width = '600'>","1","61","","","","",""
"","html-keyboard-response","128","463425","0.0-3.0-1.60","full","Male","52","United States of America","","C777566","BW","freqGain","Mozilla/5.0 (Windows NT 10.0; Win64; x64) AppleWebKit/537.36 (KHTML, like Gecko) Chrome/81.0.4044.138 Safari/537.36","1","","null","","Whew, you avoided being stung! You earned <b>0 </b> points.","","61","null","0","48","",""
"","html-button-response","129","464772","0.0-3.0-0.61","full","Male","52","United States of America","","C777566","BW","freqGain","Mozilla/5.0 (Windows NT 10.0; Win64; x64) AppleWebKit/537.36 (KHTML, like Gecko) Chrome/81.0.4044.138 Safari/537.36","1","","1345","","<img src = 'img/A0-B0-L0-W0.jpg' width = '600'>","1","62","","","","",""
"","html-keyboard-response","130","466773","0.0-3.0-1.61","full","Male","52","United States of America","","C777566","BW","freqGain","Mozilla/5.0 (Windows NT 10.0; Win64; x64) AppleWebKit/537.36 (KHTML, like Gecko) Chrome/81.0.4044.138 Safari/537.36","1","","null","","Whew, you avoided being stung! You earned <b>0 </b> points.","","62","null","0","48","",""
"","html-button-response","131","467811","0.0-3.0-0.62","full","Male","52","United States of America","","C777566","BW","freqGain","Mozilla/5.0 (Windows NT 10.0; Win64; x64) AppleWebKit/537.36 (KHTML, like Gecko) Chrome/81.0.4044.138 Safari/537.36","1","","1036","","<img src = 'img/A0-B0-L1-W0.jpg' width = '600'>","1","63","","","","",""
"","html-keyboard-response","132","469814","0.0-3.0-1.62","full","Male","52","United States of America","","C777566","BW","freqGain","Mozilla/5.0 (Windows NT 10.0; Win64; x64) AppleWebKit/537.36 (KHTML, like Gecko) Chrome/81.0.4044.138 Safari/537.36","1","","null","","Whew, you avoided being stung! You earned <b>0 </b> points.","","63","null","0","48","",""
"","html-button-response","133","471037","0.0-3.0-0.63","full","Male","52","United States of America","","C777566","BW","freqGain","Mozilla/5.0 (Windows NT 10.0; Win64; x64) AppleWebKit/537.36 (KHTML, like Gecko) Chrome/81.0.4044.138 Safari/537.36","1","","1220","","<img src = 'img/A1-B0-L1-W0.jpg' width = '600'>","1","64","","","","",""
"","html-keyboard-response","134","473039","0.0-3.0-1.63","full","Male","52","United States of America","","C777566","BW","freqGain","Mozilla/5.0 (Windows NT 10.0; Win64; x64) AppleWebKit/537.36 (KHTML, like Gecko) Chrome/81.0.4044.138 Safari/537.36","1","","null","","Whew, you avoided being stung! You earned <b>0 </b> points.","","64","null","0","48","",""
"","html-button-response","135","474141","0.0-3.0-0.64","full","Male","52","United States of America","","C777566","BW","freqGain","Mozilla/5.0 (Windows NT 10.0; Win64; x64) AppleWebKit/537.36 (KHTML, like Gecko) Chrome/81.0.4044.138 Safari/537.36","1","","1100","","<img src = 'img/A1-B0-L0-W0.jpg' width = '600'>","1","65","","","","",""
"","html-keyboard-response","136","476143","0.0-3.0-1.64","full","Male","52","United States of America","","C777566","BW","freqGain","Mozilla/5.0 (Windows NT 10.0; Win64; x64) AppleWebKit/537.36 (KHTML, like Gecko) Chrome/81.0.4044.138 Safari/537.36","1","","null","","Whew, you avoided being stung! You earned <b>0 </b> points.","","65","null","0","48","",""
"","html-button-response","137","477357","0.0-3.0-0.65","full","Male","52","United States of America","","C777566","BW","freqGain","Mozilla/5.0 (Windows NT 10.0; Win64; x64) AppleWebKit/537.36 (KHTML, like Gecko) Chrome/81.0.4044.138 Safari/537.36","1","","1212","","<img src = 'img/A0-B1-L1-W0.jpg' width = '600'>","1","66","","","","",""
"","html-keyboard-response","138","479358","0.0-3.0-1.65","full","Male","52","United States of America","","C777566","BW","freqGain","Mozilla/5.0 (Windows NT 10.0; Win64; x64) AppleWebKit/537.36 (KHTML, like Gecko) Chrome/81.0.4044.138 Safari/537.36","1","","null","","Whew, you avoided being stung! You earned <b>0 </b> points.","","66","null","0","48","",""
"","html-button-response","139","481163","0.0-3.0-0.66","full","Male","52","United States of America","","C777566","BW","freqGain","Mozilla/5.0 (Windows NT 10.0; Win64; x64) AppleWebKit/537.36 (KHTML, like Gecko) Chrome/81.0.4044.138 Safari/537.36","1","","1802","","<img src = 'img/A0-B1-L0-W1.jpg' width = '600'>","0","67","","","","",""
"","html-keyboard-response","140","483165","0.0-3.0-1.66","full","Male","52","United States of America","","C777566","BW","freqGain","Mozilla/5.0 (Windows NT 10.0; Win64; x64) AppleWebKit/537.36 (KHTML, like Gecko) Chrome/81.0.4044.138 Safari/537.36","1","","null","","You successfully harvested honey! You earned <b>3 </b>points.","","67","null","3","51","",""
"","html-button-response","141","485619","0.0-3.0-0.67","full","Male","52","United States of America","","C777566","BW","freqGain","Mozilla/5.0 (Windows NT 10.0; Win64; x64) AppleWebKit/537.36 (KHTML, like Gecko) Chrome/81.0.4044.138 Safari/537.36","1","","2452","","<img src = 'img/A1-B1-L1-W1.jpg' width = '600'>","0","68","","","","",""
"","html-keyboard-response","142","487621","0.0-3.0-1.67","full","Male","52","United States of America","","C777566","BW","freqGain","Mozilla/5.0 (Windows NT 10.0; Win64; x64) AppleWebKit/537.36 (KHTML, like Gecko) Chrome/81.0.4044.138 Safari/537.36","1","","null","","Ouch, you were stung! You lost <b>-1 </b>point.","","68","null","-1","50","",""
"","html-button-response","143","490275","0.0-3.0-0.68","full","Male","52","United States of America","","C777566","BW","freqGain","Mozilla/5.0 (Windows NT 10.0; Win64; x64) AppleWebKit/537.36 (KHTML, like Gecko) Chrome/81.0.4044.138 Safari/537.36","1","","2652","","<img src = 'img/A0-B0-L0-W1.jpg' width = '600'>","0","69","","","","",""
"","html-keyboard-response","144","492277","0.0-3.0-1.68","full","Male","52","United States of America","","C777566","BW","freqGain","Mozilla/5.0 (Windows NT 10.0; Win64; x64) AppleWebKit/537.36 (KHTML, like Gecko) Chrome/81.0.4044.138 Safari/537.36","1","","null","","Ouch, you were stung! You lost <b>-1 </b>point.","","69","null","-1","49","",""
"","html-button-response","145","493677","0.0-3.0-0.69","full","Male","52","United States of America","","C777566","BW","freqGain","Mozilla/5.0 (Windows NT 10.0; Win64; x64) AppleWebKit/537.36 (KHTML, like Gecko) Chrome/81.0.4044.138 Safari/537.36","1","","1398","","<img src = 'img/A1-B1-L1-W1.jpg' width = '600'>","0","70","","","","",""
"","html-keyboard-response","146","495678","0.0-3.0-1.69","full","Male","52","United States of America","","C777566","BW","freqGain","Mozilla/5.0 (Windows NT 10.0; Win64; x64) AppleWebKit/537.36 (KHTML, like Gecko) Chrome/81.0.4044.138 Safari/537.36","1","","null","","Ouch, you were stung! You lost <b>-1 </b>point.","","70","null","-1","48","",""
"","html-button-response","147","497093","0.0-3.0-0.70","full","Male","52","United States of America","","C777566","BW","freqGain","Mozilla/5.0 (Windows NT 10.0; Win64; x64) AppleWebKit/537.36 (KHTML, like Gecko) Chrome/81.0.4044.138 Safari/537.36","1","","1413","","<img src = 'img/A1-B1-L0-W0.jpg' width = '600'>","1","71","","","","",""
"","html-keyboard-response","148","499094","0.0-3.0-1.70","full","Male","52","United States of America","","C777566","BW","freqGain","Mozilla/5.0 (Windows NT 10.0; Win64; x64) AppleWebKit/537.36 (KHTML, like Gecko) Chrome/81.0.4044.138 Safari/537.36","1","","null","","Whew, you avoided being stung! You earned <b>0 </b> points.","","71","null","0","48","",""
"","html-button-response","149","500347","0.0-3.0-0.71","full","Male","52","United States of America","","C777566","BW","freqGain","Mozilla/5.0 (Windows NT 10.0; Win64; x64) AppleWebKit/537.36 (KHTML, like Gecko) Chrome/81.0.4044.138 Safari/537.36","1","","1251","","<img src = 'img/A1-B0-L1-W0.jpg' width = '600'>","1","72","","","","",""
"","html-keyboard-response","150","502349","0.0-3.0-1.71","full","Male","52","United States of America","","C777566","BW","freqGain","Mozilla/5.0 (Windows NT 10.0; Win64; x64) AppleWebKit/537.36 (KHTML, like Gecko) Chrome/81.0.4044.138 Safari/537.36","1","","null","","Whew, you avoided being stung! You earned <b>0 </b> points.","","72","null","0","48","",""
"","html-button-response","151","504085","0.0-3.0-0.72","full","Male","52","United States of America","","C777566","BW","freqGain","Mozilla/5.0 (Windows NT 10.0; Win64; x64) AppleWebKit/537.36 (KHTML, like Gecko) Chrome/81.0.4044.138 Safari/537.36","1","","1734","","<img src = 'img/A0-B1-L0-W1.jpg' width = '600'>","0","73","","","","",""
"","html-keyboard-response","152","506087","0.0-3.0-1.72","full","Male","52","United States of America","","C777566","BW","freqGain","Mozilla/5.0 (Windows NT 10.0; Win64; x64) AppleWebKit/537.36 (KHTML, like Gecko) Chrome/81.0.4044.138 Safari/537.36","1","","null","","You successfully harvested honey! You earned <b>3 </b>points.","","73","null","3","51","",""
"","html-button-response","153","508383","0.0-3.0-0.73","full","Male","52","United States of America","","C777566","BW","freqGain","Mozilla/5.0 (Windows NT 10.0; Win64; x64) AppleWebKit/537.36 (KHTML, like Gecko) Chrome/81.0.4044.138 Safari/537.36","1","","2294","","<img src = 'img/A1-B0-L1-W1.jpg' width = '600'>","0","74","","","","",""
"","html-keyboard-response","154","510384","0.0-3.0-1.73","full","Male","52","United States of America","","C777566","BW","freqGain","Mozilla/5.0 (Windows NT 10.0; Win64; x64) AppleWebKit/537.36 (KHTML, like Gecko) Chrome/81.0.4044.138 Safari/537.36","1","","null","","Ouch, you were stung! You lost <b>-1 </b>point.","","74","null","-1","50","",""
"","html-button-response","155","511799","0.0-3.0-0.74","full","Male","52","United States of America","","C777566","BW","freqGain","Mozilla/5.0 (Windows NT 10.0; Win64; x64) AppleWebKit/537.36 (KHTML, like Gecko) Chrome/81.0.4044.138 Safari/537.36","1","","1413","","<img src = 'img/A0-B1-L1-W1.jpg' width = '600'>","0","75","","","","",""
"","html-keyboard-response","156","513801","0.0-3.0-1.74","full","Male","52","United States of America","","C777566","BW","freqGain","Mozilla/5.0 (Windows NT 10.0; Win64; x64) AppleWebKit/537.36 (KHTML, like Gecko) Chrome/81.0.4044.138 Safari/537.36","1","","null","","You successfully harvested honey! You earned <b>3 </b>points.","","75","null","3","53","",""
"","html-button-response","157","515435","0.0-3.0-0.75","full","Male","52","United States of America","","C777566","BW","freqGain","Mozilla/5.0 (Windows NT 10.0; Win64; x64) AppleWebKit/537.36 (KHTML, like Gecko) Chrome/81.0.4044.138 Safari/537.36","1","","1623","","<img src = 'img/A0-B1-L1-W0.jpg' width = '600'>","1","76","","","","",""
"","html-keyboard-response","158","517436","0.0-3.0-1.75","full","Male","52","United States of America","","C777566","BW","freqGain","Mozilla/5.0 (Windows NT 10.0; Win64; x64) AppleWebKit/537.36 (KHTML, like Gecko) Chrome/81.0.4044.138 Safari/537.36","1","","null","","Whew, you avoided being stung! You earned <b>0 </b> points.","","76","null","0","53","",""
"","html-button-response","159","519249","0.0-3.0-0.76","full","Male","52","United States of America","","C777566","BW","freqGain","Mozilla/5.0 (Windows NT 10.0; Win64; x64) AppleWebKit/537.36 (KHTML, like Gecko) Chrome/81.0.4044.138 Safari/537.36","1","","1810","","<img src = 'img/A0-B1-L0-W1.jpg' width = '600'>","0","77","","","","",""
"","html-keyboard-response","160","521251","0.0-3.0-1.76","full","Male","52","United States of America","","C777566","BW","freqGain","Mozilla/5.0 (Windows NT 10.0; Win64; x64) AppleWebKit/537.36 (KHTML, like Gecko) Chrome/81.0.4044.138 Safari/537.36","1","","null","","You successfully harvested honey! You earned <b>3 </b>points.","","77","null","3","56","",""
"","html-button-response","161","522713","0.0-3.0-0.77","full","Male","52","United States of America","","C777566","BW","freqGain","Mozilla/5.0 (Windows NT 10.0; Win64; x64) AppleWebKit/537.36 (KHTML, like Gecko) Chrome/81.0.4044.138 Safari/537.36","1","","1461","","<img src = 'img/A1-B0-L0-W0.jpg' width = '600'>","1","78","","","","",""
"","html-keyboard-response","162","524715","0.0-3.0-1.77","full","Male","52","United States of America","","C777566","BW","freqGain","Mozilla/5.0 (Windows NT 10.0; Win64; x64) AppleWebKit/537.36 (KHTML, like Gecko) Chrome/81.0.4044.138 Safari/537.36","1","","null","","Whew, you avoided being stung! You earned <b>0 </b> points.","","78","null","0","56","",""
"","html-button-response","163","525813","0.0-3.0-0.78","full","Male","52","United States of America","","C777566","BW","freqGain","Mozilla/5.0 (Windows NT 10.0; Win64; x64) AppleWebKit/537.36 (KHTML, like Gecko) Chrome/81.0.4044.138 Safari/537.36","1","","1095","","<img src = 'img/A0-B1-L0-W0.jpg' width = '600'>","1","79","","","","",""
"","html-keyboard-response","164","527816","0.0-3.0-1.78","full","Male","52","United States of America","","C777566","BW","freqGain","Mozilla/5.0 (Windows NT 10.0; Win64; x64) AppleWebKit/537.36 (KHTML, like Gecko) Chrome/81.0.4044.138 Safari/537.36","1","","null","","Whew, you avoided being stung! You earned <b>0 </b> points.","","79","null","0","56","",""
"","html-button-response","165","531529","0.0-3.0-0.79","full","Male","52","United States of America","","C777566","BW","freqGain","Mozilla/5.0 (Windows NT 10.0; Win64; x64) AppleWebKit/537.36 (KHTML, like Gecko) Chrome/81.0.4044.138 Safari/537.36","1","","3711","","<img src = 'img/A1-B1-L0-W1.jpg' width = '600'>","0","80","","","","",""
"","html-keyboard-response","166","533531","0.0-3.0-1.79","full","Male","52","United States of America","","C777566","BW","freqGain","Mozilla/5.0 (Windows NT 10.0; Win64; x64) AppleWebKit/537.36 (KHTML, like Gecko) Chrome/81.0.4044.138 Safari/537.36","1","","null","","You successfully harvested honey! You earned <b>3 </b>points.","","80","null","3","59","",""
"","html-button-response","167","536835","0.0-3.0-0.80","full","Male","52","United States of America","","C777566","BW","freqGain","Mozilla/5.0 (Windows NT 10.0; Win64; x64) AppleWebKit/537.36 (KHTML, like Gecko) Chrome/81.0.4044.138 Safari/537.36","1","","3301","","<img src = 'img/A1-B0-L0-W1.jpg' width = '600'>","0","81","","","","",""
"","html-keyboard-response","168","538837","0.0-3.0-1.80","full","Male","52","United States of America","","C777566","BW","freqGain","Mozilla/5.0 (Windows NT 10.0; Win64; x64) AppleWebKit/537.36 (KHTML, like Gecko) Chrome/81.0.4044.138 Safari/537.36","1","","null","","Ouch, you were stung! You lost <b>-1 </b>point.","","81","null","-1","58","",""
"","html-button-response","169","540875","0.0-3.0-0.81","full","Male","52","United States of America","","C777566","BW","freqGain","Mozilla/5.0 (Windows NT 10.0; Win64; x64) AppleWebKit/537.36 (KHTML, like Gecko) Chrome/81.0.4044.138 Safari/537.36","1","","2036","","<img src = 'img/A0-B0-L1-W1.jpg' width = '600'>","0","82","","","","",""
"","html-keyboard-response","170","542877","0.0-3.0-1.81","full","Male","52","United States of America","","C777566","BW","freqGain","Mozilla/5.0 (Windows NT 10.0; Win64; x64) AppleWebKit/537.36 (KHTML, like Gecko) Chrome/81.0.4044.138 Safari/537.36","1","","null","","Ouch, you were stung! You lost <b>-1 </b>point.","","82","null","-1","57","",""
"","html-button-response","171","544299","0.0-3.0-0.82","full","Male","52","United States of America","","C777566","BW","freqGain","Mozilla/5.0 (Windows NT 10.0; Win64; x64) AppleWebKit/537.36 (KHTML, like Gecko) Chrome/81.0.4044.138 Safari/537.36","1","","1420","","<img src = 'img/A0-B0-L0-W0.jpg' width = '600'>","1","83","","","","",""
"","html-keyboard-response","172","546300","0.0-3.0-1.82","full","Male","52","United States of America","","C777566","BW","freqGain","Mozilla/5.0 (Windows NT 10.0; Win64; x64) AppleWebKit/537.36 (KHTML, like Gecko) Chrome/81.0.4044.138 Safari/537.36","1","","null","","Whew, you avoided being stung! You earned <b>0 </b> points.","","83","null","0","57","",""
"","html-button-response","173","548271","0.0-3.0-0.83","full","Male","52","United States of America","","C777566","BW","freqGain","Mozilla/5.0 (Windows NT 10.0; Win64; x64) AppleWebKit/537.36 (KHTML, like Gecko) Chrome/81.0.4044.138 Safari/537.36","1","","1969","","<img src = 'img/A0-B0-L1-W0.jpg' width = '600'>","1","84","","","","",""
"","html-keyboard-response","174","550273","0.0-3.0-1.83","full","Male","52","United States of America","","C777566","BW","freqGain","Mozilla/5.0 (Windows NT 10.0; Win64; x64) AppleWebKit/537.36 (KHTML, like Gecko) Chrome/81.0.4044.138 Safari/537.36","1","","null","","Whew, you avoided being stung! You earned <b>0 </b> points.","","84","null","0","57","",""
"","html-button-response","175","551079","0.0-3.0-0.84","full","Male","52","United States of America","","C777566","BW","freqGain","Mozilla/5.0 (Windows NT 10.0; Win64; x64) AppleWebKit/537.36 (KHTML, like Gecko) Chrome/81.0.4044.138 Safari/537.36","1","","803","","<img src = 'img/A1-B1-L1-W0.jpg' width = '600'>","1","85","","","","",""
"","html-keyboard-response","176","553080","0.0-3.0-1.84","full","Male","52","United States of America","","C777566","BW","freqGain","Mozilla/5.0 (Windows NT 10.0; Win64; x64) AppleWebKit/537.36 (KHTML, like Gecko) Chrome/81.0.4044.138 Safari/537.36","1","","null","","Whew, you avoided being stung! You earned <b>0 </b> points.","","85","null","0","57","",""
"","html-button-response","177","555285","0.0-3.0-0.85","full","Male","52","United States of America","","C777566","BW","freqGain","Mozilla/5.0 (Windows NT 10.0; Win64; x64) AppleWebKit/537.36 (KHTML, like Gecko) Chrome/81.0.4044.138 Safari/537.36","1","","2203","","<img src = 'img/A0-B1-L1-W1.jpg' width = '600'>","0","86","","","","",""
"","html-keyboard-response","178","557287","0.0-3.0-1.85","full","Male","52","United States of America","","C777566","BW","freqGain","Mozilla/5.0 (Windows NT 10.0; Win64; x64) AppleWebKit/537.36 (KHTML, like Gecko) Chrome/81.0.4044.138 Safari/537.36","1","","null","","You successfully harvested honey! You earned <b>3 </b>points.","","86","null","3","60","",""
"","html-button-response","179","559489","0.0-3.0-0.86","full","Male","52","United States of America","","C777566","BW","freqGain","Mozilla/5.0 (Windows NT 10.0; Win64; x64) AppleWebKit/537.36 (KHTML, like Gecko) Chrome/81.0.4044.138 Safari/537.36","1","","2201","","<img src = 'img/A0-B1-L0-W1.jpg' width = '600'>","0","87","","","","",""
"","html-keyboard-response","180","561491","0.0-3.0-1.86","full","Male","52","United States of America","","C777566","BW","freqGain","Mozilla/5.0 (Windows NT 10.0; Win64; x64) AppleWebKit/537.36 (KHTML, like Gecko) Chrome/81.0.4044.138 Safari/537.36","1","","null","","You successfully harvested honey! You earned <b>3 </b>points.","","87","null","3","63","",""
"","html-button-response","181","562819","0.0-3.0-0.87","full","Male","52","United States of America","","C777566","BW","freqGain","Mozilla/5.0 (Windows NT 10.0; Win64; x64) AppleWebKit/537.36 (KHTML, like Gecko) Chrome/81.0.4044.138 Safari/537.36","1","","1325","","<img src = 'img/A0-B1-L0-W0.jpg' width = '600'>","1","88","","","","",""
"","html-keyboard-response","182","564821","0.0-3.0-1.87","full","Male","52","United States of America","","C777566","BW","freqGain","Mozilla/5.0 (Windows NT 10.0; Win64; x64) AppleWebKit/537.36 (KHTML, like Gecko) Chrome/81.0.4044.138 Safari/537.36","1","","null","","Whew, you avoided being stung! You earned <b>0 </b> points.","","88","null","0","63","",""
"","html-button-response","183","565737","0.0-3.0-0.88","full","Male","52","United States of America","","C777566","BW","freqGain","Mozilla/5.0 (Windows NT 10.0; Win64; x64) AppleWebKit/537.36 (KHTML, like Gecko) Chrome/81.0.4044.138 Safari/537.36","1","","915","","<img src = 'img/A1-B1-L0-W0.jpg' width = '600'>","1","89","","","","",""
"","html-keyboard-response","184","567739","0.0-3.0-1.88","full","Male","52","United States of America","","C777566","BW","freqGain","Mozilla/5.0 (Windows NT 10.0; Win64; x64) AppleWebKit/537.36 (KHTML, like Gecko) Chrome/81.0.4044.138 Safari/537.36","1","","null","","Whew, you avoided being stung! You earned <b>0 </b> points.","","89","null","0","63","",""
"","html-button-response","185","568851","0.0-3.0-0.89","full","Male","52","United States of America","","C777566","BW","freqGain","Mozilla/5.0 (Windows NT 10.0; Win64; x64) AppleWebKit/537.36 (KHTML, like Gecko) Chrome/81.0.4044.138 Safari/537.36","1","","1109","","<img src = 'img/A1-B0-L1-W0.jpg' width = '600'>","1","90","","","","",""
"","html-keyboard-response","186","570853","0.0-3.0-1.89","full","Male","52","United States of America","","C777566","BW","freqGain","Mozilla/5.0 (Windows NT 10.0; Win64; x64) AppleWebKit/537.36 (KHTML, like Gecko) Chrome/81.0.4044.138 Safari/537.36","1","","null","","Whew, you avoided being stung! You earned <b>0 </b> points.","","90","null","0","63","",""
"","html-button-response","187","571691","0.0-3.0-0.90","full","Male","52","United States of America","","C777566","BW","freqGain","Mozilla/5.0 (Windows NT 10.0; Win64; x64) AppleWebKit/537.36 (KHTML, like Gecko) Chrome/81.0.4044.138 Safari/537.36","1","","836","","<img src = 'img/A0-B1-L1-W0.jpg' width = '600'>","1","91","","","","",""
"","html-keyboard-response","188","573693","0.0-3.0-1.90","full","Male","52","United States of America","","C777566","BW","freqGain","Mozilla/5.0 (Windows NT 10.0; Win64; x64) AppleWebKit/537.36 (KHTML, like Gecko) Chrome/81.0.4044.138 Safari/537.36","1","","null","","Whew, you avoided being stung! You earned <b>0 </b> points.","","91","null","0","63","",""
"","html-button-response","189","574453","0.0-3.0-0.91","full","Male","52","United States of America","","C777566","BW","freqGain","Mozilla/5.0 (Windows NT 10.0; Win64; x64) AppleWebKit/537.36 (KHTML, like Gecko) Chrome/81.0.4044.138 Safari/537.36","1","","758","","<img src = 'img/A1-B1-L1-W0.jpg' width = '600'>","1","92","","","","",""
"","html-keyboard-response","190","576455","0.0-3.0-1.91","full","Male","52","United States of America","","C777566","BW","freqGain","Mozilla/5.0 (Windows NT 10.0; Win64; x64) AppleWebKit/537.36 (KHTML, like Gecko) Chrome/81.0.4044.138 Safari/537.36","1","","null","","Whew, you avoided being stung! You earned <b>0 </b> points.","","92","null","0","63","",""
"","html-button-response","191","578143","0.0-3.0-0.92","full","Male","52","United States of America","","C777566","BW","freqGain","Mozilla/5.0 (Windows NT 10.0; Win64; x64) AppleWebKit/537.36 (KHTML, like Gecko) Chrome/81.0.4044.138 Safari/537.36","1","","1685","","<img src = 'img/A1-B0-L0-W1.jpg' width = '600'>","1","93","","","","",""
"","html-keyboard-response","192","580146","0.0-3.0-1.92","full","Male","52","United States of America","","C777566","BW","freqGain","Mozilla/5.0 (Windows NT 10.0; Win64; x64) AppleWebKit/537.36 (KHTML, like Gecko) Chrome/81.0.4044.138 Safari/537.36","1","","null","","Whew, you avoided being stung! You earned <b>0 </b> points.","","93","null","0","63","",""
"","html-button-response","193","581156","0.0-3.0-0.93","full","Male","52","United States of America","","C777566","BW","freqGain","Mozilla/5.0 (Windows NT 10.0; Win64; x64) AppleWebKit/537.36 (KHTML, like Gecko) Chrome/81.0.4044.138 Safari/537.36","1","","1008","","<img src = 'img/A0-B0-L0-W1.jpg' width = '600'>","1","94","","","","",""
"","html-keyboard-response","194","583157","0.0-3.0-1.93","full","Male","52","United States of America","","C777566","BW","freqGain","Mozilla/5.0 (Windows NT 10.0; Win64; x64) AppleWebKit/537.36 (KHTML, like Gecko) Chrome/81.0.4044.138 Safari/537.36","1","","null","","Whew, you avoided being stung! You earned <b>0 </b> points.","","94","null","0","63","",""
"","html-button-response","195","584253","0.0-3.0-0.94","full","Male","52","United States of America","","C777566","BW","freqGain","Mozilla/5.0 (Windows NT 10.0; Win64; x64) AppleWebKit/537.36 (KHTML, like Gecko) Chrome/81.0.4044.138 Safari/537.36","1","","1094","","<img src = 'img/A0-B0-L1-W1.jpg' width = '600'>","1","95","","","","",""
"","html-keyboard-response","196","586256","0.0-3.0-1.94","full","Male","52","United States of America","","C777566","BW","freqGain","Mozilla/5.0 (Windows NT 10.0; Win64; x64) AppleWebKit/537.36 (KHTML, like Gecko) Chrome/81.0.4044.138 Safari/537.36","1","","null","","Whew, you avoided being stung! You earned <b>0 </b> points.","","95","null","0","63","",""
"","html-button-response","197","588045","0.0-3.0-0.95","full","Male","52","United States of America","","C777566","BW","freqGain","Mozilla/5.0 (Windows NT 10.0; Win64; x64) AppleWebKit/537.36 (KHTML, like Gecko) Chrome/81.0.4044.138 Safari/537.36","1","","1786","","<img src = 'img/A0-B1-L0-W1.jpg' width = '600'>","0","96","","","","",""
"","html-keyboard-response","198","590047","0.0-3.0-1.95","full","Male","52","United States of America","","C777566","BW","freqGain","Mozilla/5.0 (Windows NT 10.0; Win64; x64) AppleWebKit/537.36 (KHTML, like Gecko) Chrome/81.0.4044.138 Safari/537.36","1","","null","","You successfully harvested honey! You earned <b>3 </b>points.","","96","null","3","66","",""
"","html-button-response","199","591047","0.0-3.0-0.96","full","Male","52","United States of America","","C777566","BW","freqGain","Mozilla/5.0 (Windows NT 10.0; Win64; x64) AppleWebKit/537.36 (KHTML, like Gecko) Chrome/81.0.4044.138 Safari/537.36","1","","999","","<img src = 'img/A0-B0-L0-W0.jpg' width = '600'>","1","97","","","","",""
"","html-keyboard-response","200","593049","0.0-3.0-1.96","full","Male","52","United States of America","","C777566","BW","freqGain","Mozilla/5.0 (Windows NT 10.0; Win64; x64) AppleWebKit/537.36 (KHTML, like Gecko) Chrome/81.0.4044.138 Safari/537.36","1","","null","","Whew, you avoided being stung! You earned <b>0 </b> points.","","97","null","0","66","",""
"","html-button-response","201","594333","0.0-3.0-0.97","full","Male","52","United States of America","","C777566","BW","freqGain","Mozilla/5.0 (Windows NT 10.0; Win64; x64) AppleWebKit/537.36 (KHTML, like Gecko) Chrome/81.0.4044.138 Safari/537.36","1","","1283","","<img src = 'img/A1-B0-L1-W1.jpg' width = '600'>","1","98","","","","",""
"","html-keyboard-response","202","596334","0.0-3.0-1.97","full","Male","52","United States of America","","C777566","BW","freqGain","Mozilla/5.0 (Windows NT 10.0; Win64; x64) AppleWebKit/537.36 (KHTML, like Gecko) Chrome/81.0.4044.138 Safari/537.36","1","","null","","Whew, you avoided being stung! You earned <b>0 </b> points.","","98","null","0","66","",""
"","html-button-response","203","597109","0.0-3.0-0.98","full","Male","52","United States of America","","C777566","BW","freqGain","Mozilla/5.0 (Windows NT 10.0; Win64; x64) AppleWebKit/537.36 (KHTML, like Gecko) Chrome/81.0.4044.138 Safari/537.36","1","","773","","<img src = 'img/A0-B0-L1-W0.jpg' width = '600'>","1","99","","","","",""
"","html-keyboard-response","204","599111","0.0-3.0-1.98","full","Male","52","United States of America","","C777566","BW","freqGain","Mozilla/5.0 (Windows NT 10.0; Win64; x64) AppleWebKit/537.36 (KHTML, like Gecko) Chrome/81.0.4044.138 Safari/537.36","1","","null","","Whew, you avoided being stung! You earned <b>0 </b> points.","","99","null","0","66","",""
"","html-button-response","205","599857","0.0-3.0-0.99","full","Male","52","United States of America","","C777566","BW","freqGain","Mozilla/5.0 (Windows NT 10.0; Win64; x64) AppleWebKit/537.36 (KHTML, like Gecko) Chrome/81.0.4044.138 Safari/537.36","1","","744","","<img src = 'img/A1-B0-L0-W0.jpg' width = '600'>","1","100","","","","",""
"","html-keyboard-response","206","601858","0.0-3.0-1.99","full","Male","52","United States of America","","C777566","BW","freqGain","Mozilla/5.0 (Windows NT 10.0; Win64; x64) AppleWebKit/537.36 (KHTML, like Gecko) Chrome/81.0.4044.138 Safari/537.36","1","","null","","Whew, you avoided being stung! You earned <b>0 </b> points.","","100","null","0","66","",""
"","html-button-response","207","603741","0.0-3.0-0.100","full","Male","52","United States of America","","C777566","BW","freqGain","Mozilla/5.0 (Windows NT 10.0; Win64; x64) AppleWebKit/537.36 (KHTML, like Gecko) Chrome/81.0.4044.138 Safari/537.36","1","","1880","","<img src = 'img/A1-B1-L0-W1.jpg' width = '600'>","0","101","","","","",""
"","html-keyboard-response","208","605742","0.0-3.0-1.100","full","Male","52","United States of America","","C777566","BW","freqGain","Mozilla/5.0 (Windows NT 10.0; Win64; x64) AppleWebKit/537.36 (KHTML, like Gecko) Chrome/81.0.4044.138 Safari/537.36","1","","null","","You successfully harvested honey! You earned <b>3 </b>points.","","101","null","3","69","",""
"","html-button-response","209","607111","0.0-3.0-0.101","full","Male","52","United States of America","","C777566","BW","freqGain","Mozilla/5.0 (Windows NT 10.0; Win64; x64) AppleWebKit/537.36 (KHTML, like Gecko) Chrome/81.0.4044.138 Safari/537.36","1","","1367","","<img src = 'img/A1-B1-L1-W1.jpg' width = '600'>","0","102","","","","",""
"","html-keyboard-response","210","609113","0.0-3.0-1.101","full","Male","52","United States of America","","C777566","BW","freqGain","Mozilla/5.0 (Windows NT 10.0; Win64; x64) AppleWebKit/537.36 (KHTML, like Gecko) Chrome/81.0.4044.138 Safari/537.36","1","","null","","Ouch, you were stung! You lost <b>-1 </b>point.","","102","null","-1","68","",""
"","html-button-response","211","611019","0.0-3.0-0.102","full","Male","52","United States of America","","C777566","BW","freqGain","Mozilla/5.0 (Windows NT 10.0; Win64; x64) AppleWebKit/537.36 (KHTML, like Gecko) Chrome/81.0.4044.138 Safari/537.36","1","","1905","","<img src = 'img/A1-B1-L1-W0.jpg' width = '600'>","1","103","","","","",""
"","html-keyboard-response","212","613021","0.0-3.0-1.102","full","Male","52","United States of America","","C777566","BW","freqGain","Mozilla/5.0 (Windows NT 10.0; Win64; x64) AppleWebKit/537.36 (KHTML, like Gecko) Chrome/81.0.4044.138 Safari/537.36","1","","null","","Whew, you avoided being stung! You earned <b>0 </b> points.","","103","null","0","68","",""
"","html-button-response","213","614321","0.0-3.0-0.103","full","Male","52","United States of America","","C777566","BW","freqGain","Mozilla/5.0 (Windows NT 10.0; Win64; x64) AppleWebKit/537.36 (KHTML, like Gecko) Chrome/81.0.4044.138 Safari/537.36","1","","1298","","<img src = 'img/A0-B1-L1-W0.jpg' width = '600'>","1","104","","","","",""
"","html-keyboard-response","214","616323","0.0-3.0-1.103","full","Male","52","United States of America","","C777566","BW","freqGain","Mozilla/5.0 (Windows NT 10.0; Win64; x64) AppleWebKit/537.36 (KHTML, like Gecko) Chrome/81.0.4044.138 Safari/537.36","1","","null","","Whew, you avoided being stung! You earned <b>0 </b> points.","","104","null","0","68","",""
"","html-button-response","215","617302","0.0-3.0-0.104","full","Male","52","United States of America","","C777566","BW","freqGain","Mozilla/5.0 (Windows NT 10.0; Win64; x64) AppleWebKit/537.36 (KHTML, like Gecko) Chrome/81.0.4044.138 Safari/537.36","1","","977","","<img src = 'img/A0-B0-L0-W0.jpg' width = '600'>","1","105","","","","",""
"","html-keyboard-response","216","619303","0.0-3.0-1.104","full","Male","52","United States of America","","C777566","BW","freqGain","Mozilla/5.0 (Windows NT 10.0; Win64; x64) AppleWebKit/537.36 (KHTML, like Gecko) Chrome/81.0.4044.138 Safari/537.36","1","","null","","Whew, you avoided being stung! You earned <b>0 </b> points.","","105","null","0","68","",""
"","html-button-response","217","620695","0.0-3.0-0.105","full","Male","52","United States of America","","C777566","BW","freqGain","Mozilla/5.0 (Windows NT 10.0; Win64; x64) AppleWebKit/537.36 (KHTML, like Gecko) Chrome/81.0.4044.138 Safari/537.36","1","","1389","","<img src = 'img/A1-B0-L1-W1.jpg' width = '600'>","1","106","","","","",""
"","html-keyboard-response","218","622696","0.0-3.0-1.105","full","Male","52","United States of America","","C777566","BW","freqGain","Mozilla/5.0 (Windows NT 10.0; Win64; x64) AppleWebKit/537.36 (KHTML, like Gecko) Chrome/81.0.4044.138 Safari/537.36","1","","null","","Whew, you avoided being stung! You earned <b>0 </b> points.","","106","null","0","68","",""
"","html-button-response","219","624541","0.0-3.0-0.106","full","Male","52","United States of America","","C777566","BW","freqGain","Mozilla/5.0 (Windows NT 10.0; Win64; x64) AppleWebKit/537.36 (KHTML, like Gecko) Chrome/81.0.4044.138 Safari/537.36","1","","1842","","<img src = 'img/A0-B1-L0-W1.jpg' width = '600'>","0","107","","","","",""
"","html-keyboard-response","220","626543","0.0-3.0-1.106","full","Male","52","United States of America","","C777566","BW","freqGain","Mozilla/5.0 (Windows NT 10.0; Win64; x64) AppleWebKit/537.36 (KHTML, like Gecko) Chrome/81.0.4044.138 Safari/537.36","1","","null","","You successfully harvested honey! You earned <b>3 </b>points.","","107","null","3","71","",""
"","html-button-response","221","628409","0.0-3.0-0.107","full","Male","52","United States of America","","C777566","BW","freqGain","Mozilla/5.0 (Windows NT 10.0; Win64; x64) AppleWebKit/537.36 (KHTML, like Gecko) Chrome/81.0.4044.138 Safari/537.36","1","","1864","","<img src = 'img/A1-B1-L0-W1.jpg' width = '600'>","0","108","","","","",""
"","html-keyboard-response","222","630411","0.0-3.0-1.107","full","Male","52","United States of America","","C777566","BW","freqGain","Mozilla/5.0 (Windows NT 10.0; Win64; x64) AppleWebKit/537.36 (KHTML, like Gecko) Chrome/81.0.4044.138 Safari/537.36","1","","null","","You successfully harvested honey! You earned <b>3 </b>points.","","108","null","3","74","",""
"","html-button-response","223","631679","0.0-3.0-0.108","full","Male","52","United States of America","","C777566","BW","freqGain","Mozilla/5.0 (Windows NT 10.0; Win64; x64) AppleWebKit/537.36 (KHTML, like Gecko) Chrome/81.0.4044.138 Safari/537.36","1","","1266","","<img src = 'img/A0-B0-L1-W0.jpg' width = '600'>","1","109","","","","",""
"","html-keyboard-response","224","633680","0.0-3.0-1.108","full","Male","52","United States of America","","C777566","BW","freqGain","Mozilla/5.0 (Windows NT 10.0; Win64; x64) AppleWebKit/537.36 (KHTML, like Gecko) Chrome/81.0.4044.138 Safari/537.36","1","","null","","Whew, you avoided being stung! You earned <b>0 </b> points.","","109","null","0","74","",""
"","html-button-response","225","634729","0.0-3.0-0.109","full","Male","52","United States of America","","C777566","BW","freqGain","Mozilla/5.0 (Windows NT 10.0; Win64; x64) AppleWebKit/537.36 (KHTML, like Gecko) Chrome/81.0.4044.138 Safari/537.36","1","","1046","","<img src = 'img/A1-B0-L0-W0.jpg' width = '600'>","1","110","","","","",""
"","html-keyboard-response","226","636730","0.0-3.0-1.109","full","Male","52","United States of America","","C777566","BW","freqGain","Mozilla/5.0 (Windows NT 10.0; Win64; x64) AppleWebKit/537.36 (KHTML, like Gecko) Chrome/81.0.4044.138 Safari/537.36","1","","null","","Whew, you avoided being stung! You earned <b>0 </b> points.","","110","null","0","74","",""
"","html-button-response","227","638911","0.0-3.0-0.110","full","Male","52","United States of America","","C777566","BW","freqGain","Mozilla/5.0 (Windows NT 10.0; Win64; x64) AppleWebKit/537.36 (KHTML, like Gecko) Chrome/81.0.4044.138 Safari/537.36","1","","2178","","<img src = 'img/A0-B1-L1-W1.jpg' width = '600'>","1","111","","","","",""
"","html-keyboard-response","228","640913","0.0-3.0-1.110","full","Male","52","United States of America","","C777566","BW","freqGain","Mozilla/5.0 (Windows NT 10.0; Win64; x64) AppleWebKit/537.36 (KHTML, like Gecko) Chrome/81.0.4044.138 Safari/537.36","1","","null","","Oops, you avoided a friendly hive. You earned <b>0 </b>points.","","111","null","0","74","",""
"","html-button-response","229","643515","0.0-3.0-0.111","full","Male","52","United States of America","","C777566","BW","freqGain","Mozilla/5.0 (Windows NT 10.0; Win64; x64) AppleWebKit/537.36 (KHTML, like Gecko) Chrome/81.0.4044.138 Safari/537.36","1","","2600","","<img src = 'img/A1-B1-L1-W1.jpg' width = '600'>","0","112","","","","",""
"","html-keyboard-response","230","645516","0.0-3.0-1.111","full","Male","52","United States of America","","C777566","BW","freqGain","Mozilla/5.0 (Windows NT 10.0; Win64; x64) AppleWebKit/537.36 (KHTML, like Gecko) Chrome/81.0.4044.138 Safari/537.36","1","","null","","Ouch, you were stung! You lost <b>-1 </b>point.","","112","null","-1","73","",""
"","html-button-response","231","646813","0.0-3.0-0.112","full","Male","52","United States of America","","C777566","BW","freqGain","Mozilla/5.0 (Windows NT 10.0; Win64; x64) AppleWebKit/537.36 (KHTML, like Gecko) Chrome/81.0.4044.138 Safari/537.36","1","","1295","","<img src = 'img/A1-B0-L1-W0.jpg' width = '600'>","1","113","","","","",""
"","html-keyboard-response","232","648815","0.0-3.0-1.112","full","Male","52","United States of America","","C777566","BW","freqGain","Mozilla/5.0 (Windows NT 10.0; Win64; x64) AppleWebKit/537.36 (KHTML, like Gecko) Chrome/81.0.4044.138 Safari/537.36","1","","null","","Whew, you avoided being stung! You earned <b>0 </b> points.","","113","null","0","73","",""
"","html-button-response","233","650193","0.0-3.0-0.113","full","Male","52","United States of America","","C777566","BW","freqGain","Mozilla/5.0 (Windows NT 10.0; Win64; x64) AppleWebKit/537.36 (KHTML, like Gecko) Chrome/81.0.4044.138 Safari/537.36","1","","1375","","<img src = 'img/A1-B0-L0-W1.jpg' width = '600'>","1","114","","","","",""
"","html-keyboard-response","234","652194","0.0-3.0-1.113","full","Male","52","United States of America","","C777566","BW","freqGain","Mozilla/5.0 (Windows NT 10.0; Win64; x64) AppleWebKit/537.36 (KHTML, like Gecko) Chrome/81.0.4044.138 Safari/537.36","1","","null","","Whew, you avoided being stung! You earned <b>0 </b> points.","","114","null","0","73","",""
"","html-button-response","235","653945","0.0-3.0-0.114","full","Male","52","United States of America","","C777566","BW","freqGain","Mozilla/5.0 (Windows NT 10.0; Win64; x64) AppleWebKit/537.36 (KHTML, like Gecko) Chrome/81.0.4044.138 Safari/537.36","1","","1748","","<img src = 'img/A0-B0-L0-W1.jpg' width = '600'>","1","115","","","","",""
"","html-keyboard-response","236","655946","0.0-3.0-1.114","full","Male","52","United States of America","","C777566","BW","freqGain","Mozilla/5.0 (Windows NT 10.0; Win64; x64) AppleWebKit/537.36 (KHTML, like Gecko) Chrome/81.0.4044.138 Safari/537.36","1","","null","","Whew, you avoided being stung! You earned <b>0 </b> points.","","115","null","0","73","",""
"","html-button-response","237","657049","0.0-3.0-0.115","full","Male","52","United States of America","","C777566","BW","freqGain","Mozilla/5.0 (Windows NT 10.0; Win64; x64) AppleWebKit/537.36 (KHTML, like Gecko) Chrome/81.0.4044.138 Safari/537.36","1","","1101","","<img src = 'img/A0-B0-L1-W1.jpg' width = '600'>","1","116","","","","",""
"","html-keyboard-response","238","659050","0.0-3.0-1.115","full","Male","52","United States of America","","C777566","BW","freqGain","Mozilla/5.0 (Windows NT 10.0; Win64; x64) AppleWebKit/537.36 (KHTML, like Gecko) Chrome/81.0.4044.138 Safari/537.36","1","","null","","Whew, you avoided being stung! You earned <b>0 </b> points.","","116","null","0","73","",""
"","html-button-response","239","660007","0.0-3.0-0.116","full","Male","52","United States of America","","C777566","BW","freqGain","Mozilla/5.0 (Windows NT 10.0; Win64; x64) AppleWebKit/537.36 (KHTML, like Gecko) Chrome/81.0.4044.138 Safari/537.36","1","","954","","<img src = 'img/A1-B1-L0-W0.jpg' width = '600'>","1","117","","","","",""
"","html-keyboard-response","240","662008","0.0-3.0-1.116","full","Male","52","United States of America","","C777566","BW","freqGain","Mozilla/5.0 (Windows NT 10.0; Win64; x64) AppleWebKit/537.36 (KHTML, like Gecko) Chrome/81.0.4044.138 Safari/537.36","1","","null","","Whew, you avoided being stung! You earned <b>0 </b> points.","","117","null","0","73","",""
"","html-button-response","241","662645","0.0-3.0-0.117","full","Male","52","United States of America","","C777566","BW","freqGain","Mozilla/5.0 (Windows NT 10.0; Win64; x64) AppleWebKit/537.36 (KHTML, like Gecko) Chrome/81.0.4044.138 Safari/537.36","1","","636","","<img src = 'img/A0-B1-L0-W0.jpg' width = '600'>","1","118","","","","",""
"","html-keyboard-response","242","664647","0.0-3.0-1.117","full","Male","52","United States of America","","C777566","BW","freqGain","Mozilla/5.0 (Windows NT 10.0; Win64; x64) AppleWebKit/537.36 (KHTML, like Gecko) Chrome/81.0.4044.138 Safari/537.36","1","","null","","Whew, you avoided being stung! You earned <b>0 </b> points.","","118","null","0","73","",""
"","html-button-response","243","666639","0.0-3.0-0.118","full","Male","52","United States of America","","C777566","BW","freqGain","Mozilla/5.0 (Windows NT 10.0; Win64; x64) AppleWebKit/537.36 (KHTML, like Gecko) Chrome/81.0.4044.138 Safari/537.36","1","","1990","","<img src = 'img/A0-B1-L0-W1.jpg' width = '600'>","0","119","","","","",""
"","html-keyboard-response","244","668641","0.0-3.0-1.118","full","Male","52","United States of America","","C777566","BW","freqGain","Mozilla/5.0 (Windows NT 10.0; Win64; x64) AppleWebKit/537.36 (KHTML, like Gecko) Chrome/81.0.4044.138 Safari/537.36","1","","null","","You successfully harvested honey! You earned <b>3 </b>points.","","119","null","3","76","",""
"","html-button-response","245","669641","0.0-3.0-0.119","full","Male","52","United States of America","","C777566","BW","freqGain","Mozilla/5.0 (Windows NT 10.0; Win64; x64) AppleWebKit/537.36 (KHTML, like Gecko) Chrome/81.0.4044.138 Safari/537.36","1","","998","","<img src = 'img/A0-B1-L1-W0.jpg' width = '600'>","1","120","","","","",""
"","html-keyboard-response","246","671642","0.0-3.0-1.119","full","Male","52","United States of America","","C777566","BW","freqGain","Mozilla/5.0 (Windows NT 10.0; Win64; x64) AppleWebKit/537.36 (KHTML, like Gecko) Chrome/81.0.4044.138 Safari/537.36","1","","null","","Whew, you avoided being stung! You earned <b>0 </b> points.","","120","null","0","76","",""
"","html-button-response","247","673503","0.0-3.0-0.120","full","Male","52","United States of America","","C777566","BW","freqGain","Mozilla/5.0 (Windows NT 10.0; Win64; x64) AppleWebKit/537.36 (KHTML, like Gecko) Chrome/81.0.4044.138 Safari/537.36","1","","1858","","<img src = 'img/A0-B1-L0-W1.jpg' width = '600'>","0","121","","","","",""
"","html-keyboard-response","248","675504","0.0-3.0-1.120","full","Male","52","United States of America","","C777566","BW","freqGain","Mozilla/5.0 (Windows NT 10.0; Win64; x64) AppleWebKit/537.36 (KHTML, like Gecko) Chrome/81.0.4044.138 Safari/537.36","1","","null","","You successfully harvested honey! You earned <b>3 </b>points.","","121","null","3","79","",""
"","html-button-response","249","676788","0.0-3.0-0.121","full","Male","52","United States of America","","C777566","BW","freqGain","Mozilla/5.0 (Windows NT 10.0; Win64; x64) AppleWebKit/537.36 (KHTML, like Gecko) Chrome/81.0.4044.138 Safari/537.36","1","","1282","","<img src = 'img/A1-B1-L1-W0.jpg' width = '600'>","1","122","","","","",""
"","html-keyboard-response","250","678791","0.0-3.0-1.121","full","Male","52","United States of America","","C777566","BW","freqGain","Mozilla/5.0 (Windows NT 10.0; Win64; x64) AppleWebKit/537.36 (KHTML, like Gecko) Chrome/81.0.4044.138 Safari/537.36","1","","null","","Whew, you avoided being stung! You earned <b>0 </b> points.","","122","null","0","79","",""
"","html-button-response","251","679473","0.0-3.0-0.122","full","Male","52","United States of America","","C777566","BW","freqGain","Mozilla/5.0 (Windows NT 10.0; Win64; x64) AppleWebKit/537.36 (KHTML, like Gecko) Chrome/81.0.4044.138 Safari/537.36","1","","680","","<img src = 'img/A0-B1-L0-W0.jpg' width = '600'>","1","123","","","","",""
"","html-keyboard-response","252","681475","0.0-3.0-1.122","full","Male","52","United States of America","","C777566","BW","freqGain","Mozilla/5.0 (Windows NT 10.0; Win64; x64) AppleWebKit/537.36 (KHTML, like Gecko) Chrome/81.0.4044.138 Safari/537.36","1","","null","","Whew, you avoided being stung! You earned <b>0 </b> points.","","123","null","0","79","",""
"","html-button-response","253","682539","0.0-3.0-0.123","full","Male","52","United States of America","","C777566","BW","freqGain","Mozilla/5.0 (Windows NT 10.0; Win64; x64) AppleWebKit/537.36 (KHTML, like Gecko) Chrome/81.0.4044.138 Safari/537.36","1","","1062","","<img src = 'img/A0-B0-L0-W1.jpg' width = '600'>","1","124","","","","",""
"","html-keyboard-response","254","684541","0.0-3.0-1.123","full","Male","52","United States of America","","C777566","BW","freqGain","Mozilla/5.0 (Windows NT 10.0; Win64; x64) AppleWebKit/537.36 (KHTML, like Gecko) Chrome/81.0.4044.138 Safari/537.36","1","","null","","Whew, you avoided being stung! You earned <b>0 </b> points.","","124","null","0","79","",""
"","html-button-response","255","685425","0.0-3.0-0.124","full","Male","52","United States of America","","C777566","BW","freqGain","Mozilla/5.0 (Windows NT 10.0; Win64; x64) AppleWebKit/537.36 (KHTML, like Gecko) Chrome/81.0.4044.138 Safari/537.36","1","","882","","<img src = 'img/A0-B0-L1-W0.jpg' width = '600'>","1","125","","","","",""
"","html-keyboard-response","256","687427","0.0-3.0-1.124","full","Male","52","United States of America","","C777566","BW","freqGain","Mozilla/5.0 (Windows NT 10.0; Win64; x64) AppleWebKit/537.36 (KHTML, like Gecko) Chrome/81.0.4044.138 Safari/537.36","1","","null","","Whew, you avoided being stung! You earned <b>0 </b> points.","","125","null","0","79","",""
"","html-button-response","257","688289","0.0-3.0-0.125","full","Male","52","United States of America","","C777566","BW","freqGain","Mozilla/5.0 (Windows NT 10.0; Win64; x64) AppleWebKit/537.36 (KHTML, like Gecko) Chrome/81.0.4044.138 Safari/537.36","1","","860","","<img src = 'img/A1-B1-L0-W0.jpg' width = '600'>","1","126","","","","",""
"","html-keyboard-response","258","690290","0.0-3.0-1.125","full","Male","52","United States of America","","C777566","BW","freqGain","Mozilla/5.0 (Windows NT 10.0; Win64; x64) AppleWebKit/537.36 (KHTML, like Gecko) Chrome/81.0.4044.138 Safari/537.36","1","","null","","Whew, you avoided being stung! You earned <b>0 </b> points.","","126","null","0","79","",""
"","html-button-response","259","692565","0.0-3.0-0.126","full","Male","52","United States of America","","C777566","BW","freqGain","Mozilla/5.0 (Windows NT 10.0; Win64; x64) AppleWebKit/537.36 (KHTML, like Gecko) Chrome/81.0.4044.138 Safari/537.36","1","","2272","","<img src = 'img/A0-B1-L1-W1.jpg' width = '600'>","0","127","","","","",""
"","html-keyboard-response","260","694566","0.0-3.0-1.126","full","Male","52","United States of America","","C777566","BW","freqGain","Mozilla/5.0 (Windows NT 10.0; Win64; x64) AppleWebKit/537.36 (KHTML, like Gecko) Chrome/81.0.4044.138 Safari/537.36","1","","null","","You successfully harvested honey! You earned <b>3 </b>points.","","127","null","3","82","",""
"","html-button-response","261","696325","0.0-3.0-0.127","full","Male","52","United States of America","","C777566","BW","freqGain","Mozilla/5.0 (Windows NT 10.0; Win64; x64) AppleWebKit/537.36 (KHTML, like Gecko) Chrome/81.0.4044.138 Safari/537.36","1","","1757","","<img src = 'img/A1-B1-L0-W1.jpg' width = '600'>","0","128","","","","",""
"","html-keyboard-response","262","698327","0.0-3.0-1.127","full","Male","52","United States of America","","C777566","BW","freqGain","Mozilla/5.0 (Windows NT 10.0; Win64; x64) AppleWebKit/537.36 (KHTML, like Gecko) Chrome/81.0.4044.138 Safari/537.36","1","","null","","You successfully harvested honey! You earned <b>3 </b>points.","","128","null","3","85","",""
"","external-html","263","717855","0.0-4.0","full","Male","52","United States of America","","C777566","BW","freqGain","Mozilla/5.0 (Windows NT 10.0; Win64; x64) AppleWebKit/537.36 (KHTML, like Gecko) Chrome/81.0.4044.138 Safari/537.36","1","","18818.475000036415","","","","","","","","./pages/testinstr-fl.html",""
"","html-button-response","264","719813","0.0-5.0-0.0","full","Male","52","United States of America","","C777566","BW","freqGain","Mozilla/5.0 (Windows NT 10.0; Win64; x64) AppleWebKit/537.36 (KHTML, like Gecko) Chrome/81.0.4044.138 Safari/537.36","1","","1955","","<img src = 'img/A1-B0-L0-W1.jpg' width = '600'>","1","","","","","","1"
"","html-keyboard-response","265","721216","0.0-5.0-1.0","full","Male","52","United States of America","","C777566","BW","freqGain","Mozilla/5.0 (Windows NT 10.0; Win64; x64) AppleWebKit/537.36 (KHTML, like Gecko) Chrome/81.0.4044.138 Safari/537.36","1","","null","","","","","null","0","85","","1"
"","html-button-response","266","721903","0.0-5.0-0.1","full","Male","52","United States of America","","C777566","BW","freqGain","Mozilla/5.0 (Windows NT 10.0; Win64; x64) AppleWebKit/537.36 (KHTML, like Gecko) Chrome/81.0.4044.138 Safari/537.36","1","","684","","<img src = 'img/A1-B0-L0-W0.jpg' width = '600'>","1","","","","","","2"
"","html-keyboard-response","267","723305","0.0-5.0-1.1","full","Male","52","United States of America","","C777566","BW","freqGain","Mozilla/5.0 (Windows NT 10.0; Win64; x64) AppleWebKit/537.36 (KHTML, like Gecko) Chrome/81.0.4044.138 Safari/537.36","1","","null","","","","","null","0","85","","2"
"","html-button-response","268","723909","0.0-5.0-0.2","full","Male","52","United States of America","","C777566","BW","freqGain","Mozilla/5.0 (Windows NT 10.0; Win64; x64) AppleWebKit/537.36 (KHTML, like Gecko) Chrome/81.0.4044.138 Safari/537.36","1","","601","","<img src = 'img/A1-B0-L1-W1.jpg' width = '600'>","1","","","","","","3"
"","html-keyboard-response","269","725312","0.0-5.0-1.2","full","Male","52","United States of America","","C777566","BW","freqGain","Mozilla/5.0 (Windows NT 10.0; Win64; x64) AppleWebKit/537.36 (KHTML, like Gecko) Chrome/81.0.4044.138 Safari/537.36","1","","null","","","","","null","0","85","","3"
"","html-button-response","270","726967","0.0-5.0-0.3","full","Male","52","United States of America","","C777566","BW","freqGain","Mozilla/5.0 (Windows NT 10.0; Win64; x64) AppleWebKit/537.36 (KHTML, like Gecko) Chrome/81.0.4044.138 Safari/537.36","1","","1653","","<img src = 'img/A1-B1-L1-W1.jpg' width = '600'>","0","","","","","","4"
"","html-keyboard-response","271","728369","0.0-5.0-1.3","full","Male","52","United States of America","","C777566","BW","freqGain","Mozilla/5.0 (Windows NT 10.0; Win64; x64) AppleWebKit/537.36 (KHTML, like Gecko) Chrome/81.0.4044.138 Safari/537.36","1","","null","","","","","null","-1","84","","4"
"","html-button-response","272","729269","0.0-5.0-0.4","full","Male","52","United States of America","","C777566","BW","freqGain","Mozilla/5.0 (Windows NT 10.0; Win64; x64) AppleWebKit/537.36 (KHTML, like Gecko) Chrome/81.0.4044.138 Safari/537.36","1","","898","","<img src = 'img/A0-B0-L0-W0.jpg' width = '600'>","1","","","","","","5"
"","html-keyboard-response","273","730671","0.0-5.0-1.4","full","Male","52","United States of America","","C777566","BW","freqGain","Mozilla/5.0 (Windows NT 10.0; Win64; x64) AppleWebKit/537.36 (KHTML, like Gecko) Chrome/81.0.4044.138 Safari/537.36","1","","null","","","","","null","0","84","","5"
"","html-button-response","274","732195","0.0-5.0-0.5","full","Male","52","United States of America","","C777566","BW","freqGain","Mozilla/5.0 (Windows NT 10.0; Win64; x64) AppleWebKit/537.36 (KHTML, like Gecko) Chrome/81.0.4044.138 Safari/537.36","1","","1522","","<img src = 'img/A0-B1-L0-W1.jpg' width = '600'>","0","","","","","","6"
"","html-keyboard-response","275","733597","0.0-5.0-1.5","full","Male","52","United States of America","","C777566","BW","freqGain","Mozilla/5.0 (Windows NT 10.0; Win64; x64) AppleWebKit/537.36 (KHTML, like Gecko) Chrome/81.0.4044.138 Safari/537.36","1","","null","","","","","null","3","87","","6"
"","html-button-response","276","734519","0.0-5.0-0.6","full","Male","52","United States of America","","C777566","BW","freqGain","Mozilla/5.0 (Windows NT 10.0; Win64; x64) AppleWebKit/537.36 (KHTML, like Gecko) Chrome/81.0.4044.138 Safari/537.36","1","","921","","<img src = 'img/A1-B0-L1-W0.jpg' width = '600'>","1","","","","","","7"
"","html-keyboard-response","277","735921","0.0-5.0-1.6","full","Male","52","United States of America","","C777566","BW","freqGain","Mozilla/5.0 (Windows NT 10.0; Win64; x64) AppleWebKit/537.36 (KHTML, like Gecko) Chrome/81.0.4044.138 Safari/537.36","1","","null","","","","","null","0","87","","7"
"","html-button-response","278","736611","0.0-5.0-0.7","full","Male","52","United States of America","","C777566","BW","freqGain","Mozilla/5.0 (Windows NT 10.0; Win64; x64) AppleWebKit/537.36 (KHTML, like Gecko) Chrome/81.0.4044.138 Safari/537.36","1","","688","","<img src = 'img/A0-B0-L1-W1.jpg' width = '600'>","1","","","","","","8"
"","html-keyboard-response","279","738013","0.0-5.0-1.7","full","Male","52","United States of America","","C777566","BW","freqGain","Mozilla/5.0 (Windows NT 10.0; Win64; x64) AppleWebKit/537.36 (KHTML, like Gecko) Chrome/81.0.4044.138 Safari/537.36","1","","null","","","","","null","0","87","","8"
"","html-button-response","280","738583","0.0-5.0-0.8","full","Male","52","United States of America","","C777566","BW","freqGain","Mozilla/5.0 (Windows NT 10.0; Win64; x64) AppleWebKit/537.36 (KHTML, like Gecko) Chrome/81.0.4044.138 Safari/537.36","1","","567","","<img src = 'img/A1-B0-L0-W0.jpg' width = '600'>","1","","","","","","9"
"","html-keyboard-response","281","739985","0.0-5.0-1.8","full","Male","52","United States of America","","C777566","BW","freqGain","Mozilla/5.0 (Windows NT 10.0; Win64; x64) AppleWebKit/537.36 (KHTML, like Gecko) Chrome/81.0.4044.138 Safari/537.36","1","","null","","","","","null","0","87","","9"
"","html-button-response","282","741331","0.0-5.0-0.9","full","Male","52","United States of America","","C777566","BW","freqGain","Mozilla/5.0 (Windows NT 10.0; Win64; x64) AppleWebKit/537.36 (KHTML, like Gecko) Chrome/81.0.4044.138 Safari/537.36","1","","1345","","<img src = 'img/A0-B1-L0-W1.jpg' width = '600'>","0","","","","","","10"
"","html-keyboard-response","283","742733","0.0-5.0-1.9","full","Male","52","United States of America","","C777566","BW","freqGain","Mozilla/5.0 (Windows NT 10.0; Win64; x64) AppleWebKit/537.36 (KHTML, like Gecko) Chrome/81.0.4044.138 Safari/537.36","1","","null","","","","","null","3","90","","10"
"","html-button-response","284","743819","0.0-5.0-0.10","full","Male","52","United States of America","","C777566","BW","freqGain","Mozilla/5.0 (Windows NT 10.0; Win64; x64) AppleWebKit/537.36 (KHTML, like Gecko) Chrome/81.0.4044.138 Safari/537.36","1","","1084","","<img src = 'img/A1-B0-L0-W1.jpg' width = '600'>","1","","","","","","11"
"","html-keyboard-response","285","745222","0.0-5.0-1.10","full","Male","52","United States of America","","C777566","BW","freqGain","Mozilla/5.0 (Windows NT 10.0; Win64; x64) AppleWebKit/537.36 (KHTML, like Gecko) Chrome/81.0.4044.138 Safari/537.36","1","","null","","","","","null","0","90","","11"
