"success","trial_type","trial_index","time_elapsed","internal_node_id","feedback","gender","age","country","email","turkcode","relevantDim","condition","browserinfo","bonus","view_history","rt","responses","stimulus","button_pressed","i","key_press","earnedThis","earnedCumulative","url","k"
"true","fullscreen","0","8725","0.0-0.0","partial","Male","70","United States of America","","C404147","BW","freqGain","Mozilla/5.0 (Windows NT 6.1; Win64; x64) AppleWebKit/537.36 (KHTML, like Gecko) Chrome/81.0.4044.138 Safari/537.36","1.22","","","","","","","","","","",""
"","instructions","1","108853","0.0-1.0-0.0","partial","Male","70","United States of America","","C404147","BW","freqGain","Mozilla/5.0 (Windows NT 6.1; Win64; x64) AppleWebKit/537.36 (KHTML, like Gecko) Chrome/81.0.4044.138 Safari/537.36","1.22","[{""page_index"":0,""viewing_time"":28327},{""page_index"":1,""viewing_time"":49214},{""page_index"":2,""viewing_time"":22585}]","100127","","","","","","","","",""
"","survey-html-form","2","140406","0.0-1.0-1.0","partial","Male","70","United States of America","","C404147","BW","freqGain","Mozilla/5.0 (Windows NT 6.1; Win64; x64) AppleWebKit/537.36 (KHTML, like Gecko) Chrome/81.0.4044.138 Safari/537.36","1.22","","31549.440000000643","{""legs"":""checked"",""body"":""checked"",""wings"":""checked"",""antennae"":""checked"",""change"":""no"",""telldangerous"":""feature"",""avoidinfo"":""noInfo""}","","","","","","","",""
"","html-button-response","3","143245","0.0-2.0","partial","Male","70","United States of America","","C404147","BW","freqGain","Mozilla/5.0 (Windows NT 6.1; Win64; x64) AppleWebKit/537.36 (KHTML, like Gecko) Chrome/81.0.4044.138 Safari/537.36","1.22","","2835","","<p>Well done! This is now the last page of instructions.</p> <p>You're going to start experiment now.</p>","0","","","","","",""
"","html-button-response","4","151340","0.0-3.0-0.0","partial","Male","70","United States of America","","C404147","BW","freqGain","Mozilla/5.0 (Windows NT 6.1; Win64; x64) AppleWebKit/537.36 (KHTML, like Gecko) Chrome/81.0.4044.138 Safari/537.36","1.22","","8092","","<img src = 'img/A0-B1-L0-W1.jpg' width = '600'>","0","1","","","","",""
"","html-keyboard-response","5","153344","0.0-3.0-1.0","partial","Male","70","United States of America","","C404147","BW","freqGain","Mozilla/5.0 (Windows NT 6.1; Win64; x64) AppleWebKit/537.36 (KHTML, like Gecko) Chrome/81.0.4044.138 Safari/537.36","1.22","","null","","You successfully harvested honey! You earned <b>3 </b>points.","","1","null","3","53","",""
"","html-button-response","6","159612","0.0-3.0-0.1","partial","Male","70","United States of America","","C404147","BW","freqGain","Mozilla/5.0 (Windows NT 6.1; Win64; x64) AppleWebKit/537.36 (KHTML, like Gecko) Chrome/81.0.4044.138 Safari/537.36","1.22","","6264","","<img src = 'img/A0-B0-L0-W0.jpg' width = '600'>","0","2","","","","",""
"","html-keyboard-response","7","161614","0.0-3.0-1.1","partial","Male","70","United States of America","","C404147","BW","freqGain","Mozilla/5.0 (Windows NT 6.1; Win64; x64) AppleWebKit/537.36 (KHTML, like Gecko) Chrome/81.0.4044.138 Safari/537.36","1.22","","null","","Ouch, you were stung! You lost <b>-1 </b>point.","","2","null","-1","52","",""
"","html-button-response","8","164716","0.0-3.0-0.2","partial","Male","70","United States of America","","C404147","BW","freqGain","Mozilla/5.0 (Windows NT 6.1; Win64; x64) AppleWebKit/537.36 (KHTML, like Gecko) Chrome/81.0.4044.138 Safari/537.36","1.22","","3099","","<img src = 'img/A1-B0-L0-W0.jpg' width = '600'>","0","3","","","","",""
"","html-keyboard-response","9","166718","0.0-3.0-1.2","partial","Male","70","United States of America","","C404147","BW","freqGain","Mozilla/5.0 (Windows NT 6.1; Win64; x64) AppleWebKit/537.36 (KHTML, like Gecko) Chrome/81.0.4044.138 Safari/537.36","1.22","","null","","Ouch, you were stung! You lost <b>-1 </b>point.","","3","null","-1","51","",""
"","html-button-response","10","170236","0.0-3.0-0.3","partial","Male","70","United States of America","","C404147","BW","freqGain","Mozilla/5.0 (Windows NT 6.1; Win64; x64) AppleWebKit/537.36 (KHTML, like Gecko) Chrome/81.0.4044.138 Safari/537.36","1.22","","3516","","<img src = 'img/A1-B1-L1-W1.jpg' width = '600'>","0","4","","","","",""
"","html-keyboard-response","11","172239","0.0-3.0-1.3","partial","Male","70","United States of America","","C404147","BW","freqGain","Mozilla/5.0 (Windows NT 6.1; Win64; x64) AppleWebKit/537.36 (KHTML, like Gecko) Chrome/81.0.4044.138 Safari/537.36","1.22","","null","","Ouch, you were stung! You lost <b>-1 </b>point.","","4","null","-1","50","",""
"","html-button-response","12","174980","0.0-3.0-0.4","partial","Male","70","United States of America","","C404147","BW","freqGain","Mozilla/5.0 (Windows NT 6.1; Win64; x64) AppleWebKit/537.36 (KHTML, like Gecko) Chrome/81.0.4044.138 Safari/537.36","1.22","","2739","","<img src = 'img/A1-B0-L0-W1.jpg' width = '600'>","1","5","","","","",""
"","html-keyboard-response","13","176983","0.0-3.0-1.4","partial","Male","70","United States of America","","C404147","BW","freqGain","Mozilla/5.0 (Windows NT 6.1; Win64; x64) AppleWebKit/537.36 (KHTML, like Gecko) Chrome/81.0.4044.138 Safari/537.36","1.22","","null","","You avoided this hive. You earned <b>0 </b>points.","","5","null","0","50","",""
"","html-button-response","14","179292","0.0-3.0-0.5","partial","Male","70","United States of America","","C404147","BW","freqGain","Mozilla/5.0 (Windows NT 6.1; Win64; x64) AppleWebKit/537.36 (KHTML, like Gecko) Chrome/81.0.4044.138 Safari/537.36","1.22","","2306","","<img src = 'img/A1-B1-L0-W1.jpg' width = '600'>","1","6","","","","",""
"","html-keyboard-response","15","181294","0.0-3.0-1.5","partial","Male","70","United States of America","","C404147","BW","freqGain","Mozilla/5.0 (Windows NT 6.1; Win64; x64) AppleWebKit/537.36 (KHTML, like Gecko) Chrome/81.0.4044.138 Safari/537.36","1.22","","null","","You avoided this hive. You earned <b>0 </b>points.","","6","null","0","50","",""
"","html-button-response","16","184028","0.0-3.0-0.6","partial","Male","70","United States of America","","C404147","BW","freqGain","Mozilla/5.0 (Windows NT 6.1; Win64; x64) AppleWebKit/537.36 (KHTML, like Gecko) Chrome/81.0.4044.138 Safari/537.36","1.22","","2731","","<img src = 'img/A1-B0-L1-W0.jpg' width = '600'>","0","7","","","","",""
"","html-keyboard-response","17","186030","0.0-3.0-1.6","partial","Male","70","United States of America","","C404147","BW","freqGain","Mozilla/5.0 (Windows NT 6.1; Win64; x64) AppleWebKit/537.36 (KHTML, like Gecko) Chrome/81.0.4044.138 Safari/537.36","1.22","","null","","Ouch, you were stung! You lost <b>-1 </b>point.","","7","null","-1","49","",""
"","html-button-response","18","188636","0.0-3.0-0.7","partial","Male","70","United States of America","","C404147","BW","freqGain","Mozilla/5.0 (Windows NT 6.1; Win64; x64) AppleWebKit/537.36 (KHTML, like Gecko) Chrome/81.0.4044.138 Safari/537.36","1.22","","2603","","<img src = 'img/A0-B1-L1-W0.jpg' width = '600'>","0","8","","","","",""
"","html-keyboard-response","19","190637","0.0-3.0-1.7","partial","Male","70","United States of America","","C404147","BW","freqGain","Mozilla/5.0 (Windows NT 6.1; Win64; x64) AppleWebKit/537.36 (KHTML, like Gecko) Chrome/81.0.4044.138 Safari/537.36","1.22","","null","","Ouch, you were stung! You lost <b>-1 </b>point.","","8","null","-1","48","",""
"","html-button-response","20","193435","0.0-3.0-0.8","partial","Male","70","United States of America","","C404147","BW","freqGain","Mozilla/5.0 (Windows NT 6.1; Win64; x64) AppleWebKit/537.36 (KHTML, like Gecko) Chrome/81.0.4044.138 Safari/537.36","1.22","","2796","","<img src = 'img/A0-B0-L1-W1.jpg' width = '600'>","0","9","","","","",""
"","html-keyboard-response","21","195436","0.0-3.0-1.8","partial","Male","70","United States of America","","C404147","BW","freqGain","Mozilla/5.0 (Windows NT 6.1; Win64; x64) AppleWebKit/537.36 (KHTML, like Gecko) Chrome/81.0.4044.138 Safari/537.36","1.22","","null","","Ouch, you were stung! You lost <b>-1 </b>point.","","9","null","-1","47","",""
"","html-button-response","22","197908","0.0-3.0-0.9","partial","Male","70","United States of America","","C404147","BW","freqGain","Mozilla/5.0 (Windows NT 6.1; Win64; x64) AppleWebKit/537.36 (KHTML, like Gecko) Chrome/81.0.4044.138 Safari/537.36","1.22","","2470","","<img src = 'img/A0-B0-L0-W1.jpg' width = '600'>","0","10","","","","",""
"","html-keyboard-response","23","199909","0.0-3.0-1.9","partial","Male","70","United States of America","","C404147","BW","freqGain","Mozilla/5.0 (Windows NT 6.1; Win64; x64) AppleWebKit/537.36 (KHTML, like Gecko) Chrome/81.0.4044.138 Safari/537.36","1.22","","null","","Ouch, you were stung! You lost <b>-1 </b>point.","","10","null","-1","46","",""
"","html-button-response","24","202636","0.0-3.0-0.10","partial","Male","70","United States of America","","C404147","BW","freqGain","Mozilla/5.0 (Windows NT 6.1; Win64; x64) AppleWebKit/537.36 (KHTML, like Gecko) Chrome/81.0.4044.138 Safari/537.36","1.22","","2724","","<img src = 'img/A0-B1-L0-W0.jpg' width = '600'>","0","11","","","","",""
"","html-keyboard-response","25","204638","0.0-3.0-1.10","partial","Male","70","United States of America","","C404147","BW","freqGain","Mozilla/5.0 (Windows NT 6.1; Win64; x64) AppleWebKit/537.36 (KHTML, like Gecko) Chrome/81.0.4044.138 Safari/537.36","1.22","","null","","Ouch, you were stung! You lost <b>-1 </b>point.","","11","null","-1","45","",""
"","html-button-response","26","210099","0.0-3.0-0.11","partial","Male","70","United States of America","","C404147","BW","freqGain","Mozilla/5.0 (Windows NT 6.1; Win64; x64) AppleWebKit/537.36 (KHTML, like Gecko) Chrome/81.0.4044.138 Safari/537.36","1.22","","5460","","<img src = 'img/A0-B1-L0-W1.jpg' width = '600'>","0","12","","","","",""
"","html-keyboard-response","27","212102","0.0-3.0-1.11","partial","Male","70","United States of America","","C404147","BW","freqGain","Mozilla/5.0 (Windows NT 6.1; Win64; x64) AppleWebKit/537.36 (KHTML, like Gecko) Chrome/81.0.4044.138 Safari/537.36","1.22","","null","","You successfully harvested honey! You earned <b>3 </b>points.","","12","null","3","48","",""
"","html-button-response","28","213915","0.0-3.0-0.12","partial","Male","70","United States of America","","C404147","BW","freqGain","Mozilla/5.0 (Windows NT 6.1; Win64; x64) AppleWebKit/537.36 (KHTML, like Gecko) Chrome/81.0.4044.138 Safari/537.36","1.22","","1811","","<img src = 'img/A0-B0-L1-W0.jpg' width = '600'>","1","13","","","","",""
"","html-keyboard-response","29","215917","0.0-3.0-1.12","partial","Male","70","United States of America","","C404147","BW","freqGain","Mozilla/5.0 (Windows NT 6.1; Win64; x64) AppleWebKit/537.36 (KHTML, like Gecko) Chrome/81.0.4044.138 Safari/537.36","1.22","","null","","You avoided this hive. You earned <b>0 </b>points.","","13","null","0","48","",""
"","html-button-response","30","218235","0.0-3.0-0.13","partial","Male","70","United States of America","","C404147","BW","freqGain","Mozilla/5.0 (Windows NT 6.1; Win64; x64) AppleWebKit/537.36 (KHTML, like Gecko) Chrome/81.0.4044.138 Safari/537.36","1.22","","2315","","<img src = 'img/A0-B1-L1-W1.jpg' width = '600'>","1","14","","","","",""
"","html-keyboard-response","31","220237","0.0-3.0-1.13","partial","Male","70","United States of America","","C404147","BW","freqGain","Mozilla/5.0 (Windows NT 6.1; Win64; x64) AppleWebKit/537.36 (KHTML, like Gecko) Chrome/81.0.4044.138 Safari/537.36","1.22","","null","","You avoided this hive. You earned <b>0 </b>points.","","14","null","0","48","",""
"","html-button-response","32","222107","0.0-3.0-0.14","partial","Male","70","United States of America","","C404147","BW","freqGain","Mozilla/5.0 (Windows NT 6.1; Win64; x64) AppleWebKit/537.36 (KHTML, like Gecko) Chrome/81.0.4044.138 Safari/537.36","1.22","","1867","","<img src = 'img/A1-B0-L1-W1.jpg' width = '600'>","1","15","","","","",""
"","html-keyboard-response","33","224108","0.0-3.0-1.14","partial","Male","70","United States of America","","C404147","BW","freqGain","Mozilla/5.0 (Windows NT 6.1; Win64; x64) AppleWebKit/537.36 (KHTML, like Gecko) Chrome/81.0.4044.138 Safari/537.36","1.22","","null","","You avoided this hive. You earned <b>0 </b>points.","","15","null","0","48","",""
"","html-button-response","34","226058","0.0-3.0-0.15","partial","Male","70","United States of America","","C404147","BW","freqGain","Mozilla/5.0 (Windows NT 6.1; Win64; x64) AppleWebKit/537.36 (KHTML, like Gecko) Chrome/81.0.4044.138 Safari/537.36","1.22","","1948","","<img src = 'img/A1-B1-L1-W0.jpg' width = '600'>","1","16","","","","",""
"","html-keyboard-response","35","228060","0.0-3.0-1.15","partial","Male","70","United States of America","","C404147","BW","freqGain","Mozilla/5.0 (Windows NT 6.1; Win64; x64) AppleWebKit/537.36 (KHTML, like Gecko) Chrome/81.0.4044.138 Safari/537.36","1.22","","null","","You avoided this hive. You earned <b>0 </b>points.","","16","null","0","48","",""
"","html-button-response","36","229618","0.0-3.0-0.16","partial","Male","70","United States of America","","C404147","BW","freqGain","Mozilla/5.0 (Windows NT 6.1; Win64; x64) AppleWebKit/537.36 (KHTML, like Gecko) Chrome/81.0.4044.138 Safari/537.36","1.22","","1555","","<img src = 'img/A1-B1-L0-W0.jpg' width = '600'>","1","17","","","","",""
"","html-keyboard-response","37","231623","0.0-3.0-1.16","partial","Male","70","United States of America","","C404147","BW","freqGain","Mozilla/5.0 (Windows NT 6.1; Win64; x64) AppleWebKit/537.36 (KHTML, like Gecko) Chrome/81.0.4044.138 Safari/537.36","1.22","","null","","You avoided this hive. You earned <b>0 </b>points.","","17","null","0","48","",""
"","html-button-response","38","234725","0.0-3.0-0.17","partial","Male","70","United States of America","","C404147","BW","freqGain","Mozilla/5.0 (Windows NT 6.1; Win64; x64) AppleWebKit/537.36 (KHTML, like Gecko) Chrome/81.0.4044.138 Safari/537.36","1.22","","3099","","<img src = 'img/A1-B0-L1-W0.jpg' width = '600'>","1","18","","","","",""
"","html-keyboard-response","39","236729","0.0-3.0-1.17","partial","Male","70","United States of America","","C404147","BW","freqGain","Mozilla/5.0 (Windows NT 6.1; Win64; x64) AppleWebKit/537.36 (KHTML, like Gecko) Chrome/81.0.4044.138 Safari/537.36","1.22","","null","","You avoided this hive. You earned <b>0 </b>points.","","18","null","0","48","",""
"","html-button-response","40","240126","0.0-3.0-0.18","partial","Male","70","United States of America","","C404147","BW","freqGain","Mozilla/5.0 (Windows NT 6.1; Win64; x64) AppleWebKit/537.36 (KHTML, like Gecko) Chrome/81.0.4044.138 Safari/537.36","1.22","","3393","","<img src = 'img/A0-B1-L0-W1.jpg' width = '600'>","0","19","","","","",""
"","html-keyboard-response","41","242128","0.0-3.0-1.18","partial","Male","70","United States of America","","C404147","BW","freqGain","Mozilla/5.0 (Windows NT 6.1; Win64; x64) AppleWebKit/537.36 (KHTML, like Gecko) Chrome/81.0.4044.138 Safari/537.36","1.22","","null","","You successfully harvested honey! You earned <b>3 </b>points.","","19","null","3","51","",""
"","html-button-response","42","243892","0.0-3.0-0.19","partial","Male","70","United States of America","","C404147","BW","freqGain","Mozilla/5.0 (Windows NT 6.1; Win64; x64) AppleWebKit/537.36 (KHTML, like Gecko) Chrome/81.0.4044.138 Safari/537.36","1.22","","1762","","<img src = 'img/A1-B0-L1-W1.jpg' width = '600'>","1","20","","","","",""
"","html-keyboard-response","43","245894","0.0-3.0-1.19","partial","Male","70","United States of America","","C404147","BW","freqGain","Mozilla/5.0 (Windows NT 6.1; Win64; x64) AppleWebKit/537.36 (KHTML, like Gecko) Chrome/81.0.4044.138 Safari/537.36","1.22","","null","","You avoided this hive. You earned <b>0 </b>points.","","20","null","0","51","",""
"","html-button-response","44","248188","0.0-3.0-0.20","partial","Male","70","United States of America","","C404147","BW","freqGain","Mozilla/5.0 (Windows NT 6.1; Win64; x64) AppleWebKit/537.36 (KHTML, like Gecko) Chrome/81.0.4044.138 Safari/537.36","1.22","","2291","","<img src = 'img/A1-B1-L1-W0.jpg' width = '600'>","1","21","","","","",""
"","html-keyboard-response","45","250190","0.0-3.0-1.20","partial","Male","70","United States of America","","C404147","BW","freqGain","Mozilla/5.0 (Windows NT 6.1; Win64; x64) AppleWebKit/537.36 (KHTML, like Gecko) Chrome/81.0.4044.138 Safari/537.36","1.22","","null","","You avoided this hive. You earned <b>0 </b>points.","","21","null","0","51","",""
"","html-button-response","46","252052","0.0-3.0-0.21","partial","Male","70","United States of America","","C404147","BW","freqGain","Mozilla/5.0 (Windows NT 6.1; Win64; x64) AppleWebKit/537.36 (KHTML, like Gecko) Chrome/81.0.4044.138 Safari/537.36","1.22","","1859","","<img src = 'img/A0-B0-L1-W1.jpg' width = '600'>","1","22","","","","",""
"","html-keyboard-response","47","254053","0.0-3.0-1.21","partial","Male","70","United States of America","","C404147","BW","freqGain","Mozilla/5.0 (Windows NT 6.1; Win64; x64) AppleWebKit/537.36 (KHTML, like Gecko) Chrome/81.0.4044.138 Safari/537.36","1.22","","null","","You avoided this hive. You earned <b>0 </b>points.","","22","null","0","51","",""
"","html-button-response","48","255859","0.0-3.0-0.22","partial","Male","70","United States of America","","C404147","BW","freqGain","Mozilla/5.0 (Windows NT 6.1; Win64; x64) AppleWebKit/537.36 (KHTML, like Gecko) Chrome/81.0.4044.138 Safari/537.36","1.22","","1805","","<img src = 'img/A0-B0-L1-W0.jpg' width = '600'>","1","23","","","","",""
"","html-keyboard-response","49","257861","0.0-3.0-1.22","partial","Male","70","United States of America","","C404147","BW","freqGain","Mozilla/5.0 (Windows NT 6.1; Win64; x64) AppleWebKit/537.36 (KHTML, like Gecko) Chrome/81.0.4044.138 Safari/537.36","1.22","","null","","You avoided this hive. You earned <b>0 </b>points.","","23","null","0","51","",""
"","html-button-response","50","260340","0.0-3.0-0.23","partial","Male","70","United States of America","","C404147","BW","freqGain","Mozilla/5.0 (Windows NT 6.1; Win64; x64) AppleWebKit/537.36 (KHTML, like Gecko) Chrome/81.0.4044.138 Safari/537.36","1.22","","2476","","<img src = 'img/A0-B1-L1-W0.jpg' width = '600'>","1","24","","","","",""
"","html-keyboard-response","51","262341","0.0-3.0-1.23","partial","Male","70","United States of America","","C404147","BW","freqGain","Mozilla/5.0 (Windows NT 6.1; Win64; x64) AppleWebKit/537.36 (KHTML, like Gecko) Chrome/81.0.4044.138 Safari/537.36","1.22","","null","","You avoided this hive. You earned <b>0 </b>points.","","24","null","0","51","",""
"","html-button-response","52","264307","0.0-3.0-0.24","partial","Male","70","United States of America","","C404147","BW","freqGain","Mozilla/5.0 (Windows NT 6.1; Win64; x64) AppleWebKit/537.36 (KHTML, like Gecko) Chrome/81.0.4044.138 Safari/537.36","1.22","","1964","","<img src = 'img/A0-B1-L0-W1.jpg' width = '600'>","0","25","","","","",""
"","html-keyboard-response","53","266310","0.0-3.0-1.24","partial","Male","70","United States of America","","C404147","BW","freqGain","Mozilla/5.0 (Windows NT 6.1; Win64; x64) AppleWebKit/537.36 (KHTML, like Gecko) Chrome/81.0.4044.138 Safari/537.36","1.22","","null","","You successfully harvested honey! You earned <b>3 </b>points.","","25","null","3","54","",""
"","html-button-response","54","271178","0.0-3.0-0.25","partial","Male","70","United States of America","","C404147","BW","freqGain","Mozilla/5.0 (Windows NT 6.1; Win64; x64) AppleWebKit/537.36 (KHTML, like Gecko) Chrome/81.0.4044.138 Safari/537.36","1.22","","4867","","<img src = 'img/A1-B0-L0-W1.jpg' width = '600'>","1","26","","","","",""
"","html-keyboard-response","55","273180","0.0-3.0-1.25","partial","Male","70","United States of America","","C404147","BW","freqGain","Mozilla/5.0 (Windows NT 6.1; Win64; x64) AppleWebKit/537.36 (KHTML, like Gecko) Chrome/81.0.4044.138 Safari/537.36","1.22","","null","","You avoided this hive. You earned <b>0 </b>points.","","26","null","0","54","",""
"","html-button-response","56","275051","0.0-3.0-0.26","partial","Male","70","United States of America","","C404147","BW","freqGain","Mozilla/5.0 (Windows NT 6.1; Win64; x64) AppleWebKit/537.36 (KHTML, like Gecko) Chrome/81.0.4044.138 Safari/537.36","1.22","","1869","","<img src = 'img/A0-B0-L0-W1.jpg' width = '600'>","1","27","","","","",""
"","html-keyboard-response","57","277053","0.0-3.0-1.26","partial","Male","70","United States of America","","C404147","BW","freqGain","Mozilla/5.0 (Windows NT 6.1; Win64; x64) AppleWebKit/537.36 (KHTML, like Gecko) Chrome/81.0.4044.138 Safari/537.36","1.22","","null","","You avoided this hive. You earned <b>0 </b>points.","","27","null","0","54","",""
"","html-button-response","58","278859","0.0-3.0-0.27","partial","Male","70","United States of America","","C404147","BW","freqGain","Mozilla/5.0 (Windows NT 6.1; Win64; x64) AppleWebKit/537.36 (KHTML, like Gecko) Chrome/81.0.4044.138 Safari/537.36","1.22","","1803","","<img src = 'img/A1-B1-L0-W1.jpg' width = '600'>","1","28","","","","",""
"","html-keyboard-response","59","280861","0.0-3.0-1.27","partial","Male","70","United States of America","","C404147","BW","freqGain","Mozilla/5.0 (Windows NT 6.1; Win64; x64) AppleWebKit/537.36 (KHTML, like Gecko) Chrome/81.0.4044.138 Safari/537.36","1.22","","null","","You avoided this hive. You earned <b>0 </b>points.","","28","null","0","54","",""
"","html-button-response","60","282082","0.0-3.0-0.28","partial","Male","70","United States of America","","C404147","BW","freqGain","Mozilla/5.0 (Windows NT 6.1; Win64; x64) AppleWebKit/537.36 (KHTML, like Gecko) Chrome/81.0.4044.138 Safari/537.36","1.22","","1219","","<img src = 'img/A1-B1-L0-W0.jpg' width = '600'>","1","29","","","","",""
"","html-keyboard-response","61","284084","0.0-3.0-1.28","partial","Male","70","United States of America","","C404147","BW","freqGain","Mozilla/5.0 (Windows NT 6.1; Win64; x64) AppleWebKit/537.36 (KHTML, like Gecko) Chrome/81.0.4044.138 Safari/537.36","1.22","","null","","You avoided this hive. You earned <b>0 </b>points.","","29","null","0","54","",""
"","html-button-response","62","285283","0.0-3.0-0.29","partial","Male","70","United States of America","","C404147","BW","freqGain","Mozilla/5.0 (Windows NT 6.1; Win64; x64) AppleWebKit/537.36 (KHTML, like Gecko) Chrome/81.0.4044.138 Safari/537.36","1.22","","1196","","<img src = 'img/A0-B0-L0-W0.jpg' width = '600'>","1","30","","","","",""
"","html-keyboard-response","63","287284","0.0-3.0-1.29","partial","Male","70","United States of America","","C404147","BW","freqGain","Mozilla/5.0 (Windows NT 6.1; Win64; x64) AppleWebKit/537.36 (KHTML, like Gecko) Chrome/81.0.4044.138 Safari/537.36","1.22","","null","","You avoided this hive. You earned <b>0 </b>points.","","30","null","0","54","",""
"","html-button-response","64","289394","0.0-3.0-0.30","partial","Male","70","United States of America","","C404147","BW","freqGain","Mozilla/5.0 (Windows NT 6.1; Win64; x64) AppleWebKit/537.36 (KHTML, like Gecko) Chrome/81.0.4044.138 Safari/537.36","1.22","","2107","","<img src = 'img/A0-B1-L1-W1.jpg' width = '600'>","0","31","","","","",""
"","html-keyboard-response","65","291395","0.0-3.0-1.30","partial","Male","70","United States of America","","C404147","BW","freqGain","Mozilla/5.0 (Windows NT 6.1; Win64; x64) AppleWebKit/537.36 (KHTML, like Gecko) Chrome/81.0.4044.138 Safari/537.36","1.22","","null","","You successfully harvested honey! You earned <b>3 </b>points.","","31","null","3","57","",""
"","html-button-response","66","293580","0.0-3.0-0.31","partial","Male","70","United States of America","","C404147","BW","freqGain","Mozilla/5.0 (Windows NT 6.1; Win64; x64) AppleWebKit/537.36 (KHTML, like Gecko) Chrome/81.0.4044.138 Safari/537.36","1.22","","2182","","<img src = 'img/A0-B1-L0-W0.jpg' width = '600'>","1","32","","","","",""
"","html-keyboard-response","67","295582","0.0-3.0-1.31","partial","Male","70","United States of America","","C404147","BW","freqGain","Mozilla/5.0 (Windows NT 6.1; Win64; x64) AppleWebKit/537.36 (KHTML, like Gecko) Chrome/81.0.4044.138 Safari/537.36","1.22","","null","","You avoided this hive. You earned <b>0 </b>points.","","32","null","0","57","",""
"","html-button-response","68","297556","0.0-3.0-0.32","partial","Male","70","United States of America","","C404147","BW","freqGain","Mozilla/5.0 (Windows NT 6.1; Win64; x64) AppleWebKit/537.36 (KHTML, like Gecko) Chrome/81.0.4044.138 Safari/537.36","1.22","","1971","","<img src = 'img/A1-B1-L1-W1.jpg' width = '600'>","1","33","","","","",""
"","html-keyboard-response","69","299561","0.0-3.0-1.32","partial","Male","70","United States of America","","C404147","BW","freqGain","Mozilla/5.0 (Windows NT 6.1; Win64; x64) AppleWebKit/537.36 (KHTML, like Gecko) Chrome/81.0.4044.138 Safari/537.36","1.22","","null","","You avoided this hive. You earned <b>0 </b>points.","","33","null","0","57","",""
"","html-button-response","70","301356","0.0-3.0-0.33","partial","Male","70","United States of America","","C404147","BW","freqGain","Mozilla/5.0 (Windows NT 6.1; Win64; x64) AppleWebKit/537.36 (KHTML, like Gecko) Chrome/81.0.4044.138 Safari/537.36","1.22","","1792","","<img src = 'img/A1-B0-L0-W0.jpg' width = '600'>","1","34","","","","",""
"","html-keyboard-response","71","303357","0.0-3.0-1.33","partial","Male","70","United States of America","","C404147","BW","freqGain","Mozilla/5.0 (Windows NT 6.1; Win64; x64) AppleWebKit/537.36 (KHTML, like Gecko) Chrome/81.0.4044.138 Safari/537.36","1.22","","null","","You avoided this hive. You earned <b>0 </b>points.","","34","null","0","57","",""
"","html-button-response","72","305299","0.0-3.0-0.34","partial","Male","70","United States of America","","C404147","BW","freqGain","Mozilla/5.0 (Windows NT 6.1; Win64; x64) AppleWebKit/537.36 (KHTML, like Gecko) Chrome/81.0.4044.138 Safari/537.36","1.22","","1940","","<img src = 'img/A0-B1-L1-W1.jpg' width = '600'>","0","35","","","","",""
"","html-keyboard-response","73","307301","0.0-3.0-1.34","partial","Male","70","United States of America","","C404147","BW","freqGain","Mozilla/5.0 (Windows NT 6.1; Win64; x64) AppleWebKit/537.36 (KHTML, like Gecko) Chrome/81.0.4044.138 Safari/537.36","1.22","","null","","You successfully harvested honey! You earned <b>3 </b>points.","","35","null","3","60","",""
"","html-button-response","74","308427","0.0-3.0-0.35","partial","Male","70","United States of America","","C404147","BW","freqGain","Mozilla/5.0 (Windows NT 6.1; Win64; x64) AppleWebKit/537.36 (KHTML, like Gecko) Chrome/81.0.4044.138 Safari/537.36","1.22","","1123","","<img src = 'img/A0-B0-L0-W1.jpg' width = '600'>","1","36","","","","",""
"","html-keyboard-response","75","310428","0.0-3.0-1.35","partial","Male","70","United States of America","","C404147","BW","freqGain","Mozilla/5.0 (Windows NT 6.1; Win64; x64) AppleWebKit/537.36 (KHTML, like Gecko) Chrome/81.0.4044.138 Safari/537.36","1.22","","null","","You avoided this hive. You earned <b>0 </b>points.","","36","null","0","60","",""
"","html-button-response","76","312547","0.0-3.0-0.36","partial","Male","70","United States of America","","C404147","BW","freqGain","Mozilla/5.0 (Windows NT 6.1; Win64; x64) AppleWebKit/537.36 (KHTML, like Gecko) Chrome/81.0.4044.138 Safari/537.36","1.22","","2117","","<img src = 'img/A0-B1-L0-W0.jpg' width = '600'>","1","37","","","","",""
"","html-keyboard-response","77","314548","0.0-3.0-1.36","partial","Male","70","United States of America","","C404147","BW","freqGain","Mozilla/5.0 (Windows NT 6.1; Win64; x64) AppleWebKit/537.36 (KHTML, like Gecko) Chrome/81.0.4044.138 Safari/537.36","1.22","","null","","You avoided this hive. You earned <b>0 </b>points.","","37","null","0","60","",""
"","html-button-response","78","316379","0.0-3.0-0.37","partial","Male","70","United States of America","","C404147","BW","freqGain","Mozilla/5.0 (Windows NT 6.1; Win64; x64) AppleWebKit/537.36 (KHTML, like Gecko) Chrome/81.0.4044.138 Safari/537.36","1.22","","1828","","<img src = 'img/A0-B1-L0-W1.jpg' width = '600'>","0","38","","","","",""
"","html-keyboard-response","79","318381","0.0-3.0-1.37","partial","Male","70","United States of America","","C404147","BW","freqGain","Mozilla/5.0 (Windows NT 6.1; Win64; x64) AppleWebKit/537.36 (KHTML, like Gecko) Chrome/81.0.4044.138 Safari/537.36","1.22","","null","","You successfully harvested honey! You earned <b>3 </b>points.","","38","null","3","63","",""
"","html-button-response","80","320307","0.0-3.0-0.38","partial","Male","70","United States of America","","C404147","BW","freqGain","Mozilla/5.0 (Windows NT 6.1; Win64; x64) AppleWebKit/537.36 (KHTML, like Gecko) Chrome/81.0.4044.138 Safari/537.36","1.22","","1925","","<img src = 'img/A1-B1-L0-W0.jpg' width = '600'>","1","39","","","","",""
"","html-keyboard-response","81","322309","0.0-3.0-1.38","partial","Male","70","United States of America","","C404147","BW","freqGain","Mozilla/5.0 (Windows NT 6.1; Win64; x64) AppleWebKit/537.36 (KHTML, like Gecko) Chrome/81.0.4044.138 Safari/537.36","1.22","","null","","You avoided this hive. You earned <b>0 </b>points.","","39","null","0","63","",""
"","html-button-response","82","323987","0.0-3.0-0.39","partial","Male","70","United States of America","","C404147","BW","freqGain","Mozilla/5.0 (Windows NT 6.1; Win64; x64) AppleWebKit/537.36 (KHTML, like Gecko) Chrome/81.0.4044.138 Safari/537.36","1.22","","1676","","<img src = 'img/A0-B0-L1-W1.jpg' width = '600'>","1","40","","","","",""
"","html-keyboard-response","83","325989","0.0-3.0-1.39","partial","Male","70","United States of America","","C404147","BW","freqGain","Mozilla/5.0 (Windows NT 6.1; Win64; x64) AppleWebKit/537.36 (KHTML, like Gecko) Chrome/81.0.4044.138 Safari/537.36","1.22","","null","","You avoided this hive. You earned <b>0 </b>points.","","40","null","0","63","",""
"","html-button-response","84","328915","0.0-3.0-0.40","partial","Male","70","United States of America","","C404147","BW","freqGain","Mozilla/5.0 (Windows NT 6.1; Win64; x64) AppleWebKit/537.36 (KHTML, like Gecko) Chrome/81.0.4044.138 Safari/537.36","1.22","","2923","","<img src = 'img/A1-B1-L1-W1.jpg' width = '600'>","1","41","","","","",""
"","html-keyboard-response","85","330917","0.0-3.0-1.40","partial","Male","70","United States of America","","C404147","BW","freqGain","Mozilla/5.0 (Windows NT 6.1; Win64; x64) AppleWebKit/537.36 (KHTML, like Gecko) Chrome/81.0.4044.138 Safari/537.36","1.22","","null","","You avoided this hive. You earned <b>0 </b>points.","","41","null","0","63","",""
"","html-button-response","86","332499","0.0-3.0-0.41","partial","Male","70","United States of America","","C404147","BW","freqGain","Mozilla/5.0 (Windows NT 6.1; Win64; x64) AppleWebKit/537.36 (KHTML, like Gecko) Chrome/81.0.4044.138 Safari/537.36","1.22","","1580","","<img src = 'img/A1-B0-L1-W0.jpg' width = '600'>","1","42","","","","",""
"","html-keyboard-response","87","334500","0.0-3.0-1.41","partial","Male","70","United States of America","","C404147","BW","freqGain","Mozilla/5.0 (Windows NT 6.1; Win64; x64) AppleWebKit/537.36 (KHTML, like Gecko) Chrome/81.0.4044.138 Safari/537.36","1.22","","null","","You avoided this hive. You earned <b>0 </b>points.","","42","null","0","63","",""
"","html-button-response","88","337610","0.0-3.0-0.42","partial","Male","70","United States of America","","C404147","BW","freqGain","Mozilla/5.0 (Windows NT 6.1; Win64; x64) AppleWebKit/537.36 (KHTML, like Gecko) Chrome/81.0.4044.138 Safari/537.36","1.22","","3108","","<img src = 'img/A1-B0-L1-W1.jpg' width = '600'>","1","43","","","","",""
"","html-keyboard-response","89","339612","0.0-3.0-1.42","partial","Male","70","United States of America","","C404147","BW","freqGain","Mozilla/5.0 (Windows NT 6.1; Win64; x64) AppleWebKit/537.36 (KHTML, like Gecko) Chrome/81.0.4044.138 Safari/537.36","1.22","","null","","You avoided this hive. You earned <b>0 </b>points.","","43","null","0","63","",""
"","html-button-response","90","341210","0.0-3.0-0.43","partial","Male","70","United States of America","","C404147","BW","freqGain","Mozilla/5.0 (Windows NT 6.1; Win64; x64) AppleWebKit/537.36 (KHTML, like Gecko) Chrome/81.0.4044.138 Safari/537.36","1.22","","1597","","<img src = 'img/A1-B1-L0-W1.jpg' width = '600'>","1","44","","","","",""
"","html-keyboard-response","91","343212","0.0-3.0-1.43","partial","Male","70","United States of America","","C404147","BW","freqGain","Mozilla/5.0 (Windows NT 6.1; Win64; x64) AppleWebKit/537.36 (KHTML, like Gecko) Chrome/81.0.4044.138 Safari/537.36","1.22","","null","","You avoided this hive. You earned <b>0 </b>points.","","44","null","0","63","",""
"","html-button-response","92","344978","0.0-3.0-0.44","partial","Male","70","United States of America","","C404147","BW","freqGain","Mozilla/5.0 (Windows NT 6.1; Win64; x64) AppleWebKit/537.36 (KHTML, like Gecko) Chrome/81.0.4044.138 Safari/537.36","1.22","","1763","","<img src = 'img/A0-B0-L0-W0.jpg' width = '600'>","1","45","","","","",""
"","html-keyboard-response","93","346980","0.0-3.0-1.44","partial","Male","70","United States of America","","C404147","BW","freqGain","Mozilla/5.0 (Windows NT 6.1; Win64; x64) AppleWebKit/537.36 (KHTML, like Gecko) Chrome/81.0.4044.138 Safari/537.36","1.22","","null","","You avoided this hive. You earned <b>0 </b>points.","","45","null","0","63","",""
"","html-button-response","94","348665","0.0-3.0-0.45","partial","Male","70","United States of America","","C404147","BW","freqGain","Mozilla/5.0 (Windows NT 6.1; Win64; x64) AppleWebKit/537.36 (KHTML, like Gecko) Chrome/81.0.4044.138 Safari/537.36","1.22","","1683","","<img src = 'img/A1-B0-L0-W1.jpg' width = '600'>","1","46","","","","",""
"","html-keyboard-response","95","350666","0.0-3.0-1.45","partial","Male","70","United States of America","","C404147","BW","freqGain","Mozilla/5.0 (Windows NT 6.1; Win64; x64) AppleWebKit/537.36 (KHTML, like Gecko) Chrome/81.0.4044.138 Safari/537.36","1.22","","null","","You avoided this hive. You earned <b>0 </b>points.","","46","null","0","63","",""
"","html-button-response","96","352699","0.0-3.0-0.46","partial","Male","70","United States of America","","C404147","BW","freqGain","Mozilla/5.0 (Windows NT 6.1; Win64; x64) AppleWebKit/537.36 (KHTML, like Gecko) Chrome/81.0.4044.138 Safari/537.36","1.22","","2031","","<img src = 'img/A0-B1-L0-W1.jpg' width = '600'>","0","47","","","","",""
"","html-keyboard-response","97","354701","0.0-3.0-1.46","partial","Male","70","United States of America","","C404147","BW","freqGain","Mozilla/5.0 (Windows NT 6.1; Win64; x64) AppleWebKit/537.36 (KHTML, like Gecko) Chrome/81.0.4044.138 Safari/537.36","1.22","","null","","You successfully harvested honey! You earned <b>3 </b>points.","","47","null","3","66","",""
"","html-button-response","98","357116","0.0-3.0-0.47","partial","Male","70","United States of America","","C404147","BW","freqGain","Mozilla/5.0 (Windows NT 6.1; Win64; x64) AppleWebKit/537.36 (KHTML, like Gecko) Chrome/81.0.4044.138 Safari/537.36","1.22","","2412","","<img src = 'img/A1-B0-L0-W0.jpg' width = '600'>","1","48","","","","",""
"","html-keyboard-response","99","359118","0.0-3.0-1.47","partial","Male","70","United States of America","","C404147","BW","freqGain","Mozilla/5.0 (Windows NT 6.1; Win64; x64) AppleWebKit/537.36 (KHTML, like Gecko) Chrome/81.0.4044.138 Safari/537.36","1.22","","null","","You avoided this hive. You earned <b>0 </b>points.","","48","null","0","66","",""
"","html-button-response","100","362491","0.0-3.0-0.48","partial","Male","70","United States of America","","C404147","BW","freqGain","Mozilla/5.0 (Windows NT 6.1; Win64; x64) AppleWebKit/537.36 (KHTML, like Gecko) Chrome/81.0.4044.138 Safari/537.36","1.22","","3371","","<img src = 'img/A1-B1-L1-W0.jpg' width = '600'>","1","49","","","","",""
"","html-keyboard-response","101","364493","0.0-3.0-1.48","partial","Male","70","United States of America","","C404147","BW","freqGain","Mozilla/5.0 (Windows NT 6.1; Win64; x64) AppleWebKit/537.36 (KHTML, like Gecko) Chrome/81.0.4044.138 Safari/537.36","1.22","","null","","You avoided this hive. You earned <b>0 </b>points.","","49","null","0","66","",""
"","html-button-response","102","367251","0.0-3.0-0.49","partial","Male","70","United States of America","","C404147","BW","freqGain","Mozilla/5.0 (Windows NT 6.1; Win64; x64) AppleWebKit/537.36 (KHTML, like Gecko) Chrome/81.0.4044.138 Safari/537.36","1.22","","2756","","<img src = 'img/A0-B1-L1-W0.jpg' width = '600'>","1","50","","","","",""
"","html-keyboard-response","103","369253","0.0-3.0-1.49","partial","Male","70","United States of America","","C404147","BW","freqGain","Mozilla/5.0 (Windows NT 6.1; Win64; x64) AppleWebKit/537.36 (KHTML, like Gecko) Chrome/81.0.4044.138 Safari/537.36","1.22","","null","","You avoided this hive. You earned <b>0 </b>points.","","50","null","0","66","",""
"","html-button-response","104","370907","0.0-3.0-0.50","partial","Male","70","United States of America","","C404147","BW","freqGain","Mozilla/5.0 (Windows NT 6.1; Win64; x64) AppleWebKit/537.36 (KHTML, like Gecko) Chrome/81.0.4044.138 Safari/537.36","1.22","","1651","","<img src = 'img/A0-B0-L1-W0.jpg' width = '600'>","1","51","","","","",""
"","html-keyboard-response","105","372909","0.0-3.0-1.50","partial","Male","70","United States of America","","C404147","BW","freqGain","Mozilla/5.0 (Windows NT 6.1; Win64; x64) AppleWebKit/537.36 (KHTML, like Gecko) Chrome/81.0.4044.138 Safari/537.36","1.22","","null","","You avoided this hive. You earned <b>0 </b>points.","","51","null","0","66","",""
"","html-button-response","106","374667","0.0-3.0-0.51","partial","Male","70","United States of America","","C404147","BW","freqGain","Mozilla/5.0 (Windows NT 6.1; Win64; x64) AppleWebKit/537.36 (KHTML, like Gecko) Chrome/81.0.4044.138 Safari/537.36","1.22","","1756","","<img src = 'img/A0-B1-L1-W0.jpg' width = '600'>","1","52","","","","",""
"","html-keyboard-response","107","376668","0.0-3.0-1.51","partial","Male","70","United States of America","","C404147","BW","freqGain","Mozilla/5.0 (Windows NT 6.1; Win64; x64) AppleWebKit/537.36 (KHTML, like Gecko) Chrome/81.0.4044.138 Safari/537.36","1.22","","null","","You avoided this hive. You earned <b>0 </b>points.","","52","null","0","66","",""
"","html-button-response","108","378770","0.0-3.0-0.52","partial","Male","70","United States of America","","C404147","BW","freqGain","Mozilla/5.0 (Windows NT 6.1; Win64; x64) AppleWebKit/537.36 (KHTML, like Gecko) Chrome/81.0.4044.138 Safari/537.36","1.22","","2099","","<img src = 'img/A0-B0-L0-W1.jpg' width = '600'>","1","53","","","","",""
"","html-keyboard-response","109","380771","0.0-3.0-1.52","partial","Male","70","United States of America","","C404147","BW","freqGain","Mozilla/5.0 (Windows NT 6.1; Win64; x64) AppleWebKit/537.36 (KHTML, like Gecko) Chrome/81.0.4044.138 Safari/537.36","1.22","","null","","You avoided this hive. You earned <b>0 </b>points.","","53","null","0","66","",""
"","html-button-response","110","383242","0.0-3.0-0.53","partial","Male","70","United States of America","","C404147","BW","freqGain","Mozilla/5.0 (Windows NT 6.1; Win64; x64) AppleWebKit/537.36 (KHTML, like Gecko) Chrome/81.0.4044.138 Safari/537.36","1.22","","2468","","<img src = 'img/A0-B1-L0-W1.jpg' width = '600'>","0","54","","","","",""
"","html-keyboard-response","111","385243","0.0-3.0-1.53","partial","Male","70","United States of America","","C404147","BW","freqGain","Mozilla/5.0 (Windows NT 6.1; Win64; x64) AppleWebKit/537.36 (KHTML, like Gecko) Chrome/81.0.4044.138 Safari/537.36","1.22","","null","","You successfully harvested honey! You earned <b>3 </b>points.","","54","null","3","69","",""
"","html-button-response","112","387090","0.0-3.0-0.54","partial","Male","70","United States of America","","C404147","BW","freqGain","Mozilla/5.0 (Windows NT 6.1; Win64; x64) AppleWebKit/537.36 (KHTML, like Gecko) Chrome/81.0.4044.138 Safari/537.36","1.22","","1845","","<img src = 'img/A0-B0-L0-W0.jpg' width = '600'>","1","55","","","","",""
"","html-keyboard-response","113","389092","0.0-3.0-1.54","partial","Male","70","United States of America","","C404147","BW","freqGain","Mozilla/5.0 (Windows NT 6.1; Win64; x64) AppleWebKit/537.36 (KHTML, like Gecko) Chrome/81.0.4044.138 Safari/537.36","1.22","","null","","You avoided this hive. You earned <b>0 </b>points.","","55","null","0","69","",""
"","html-button-response","114","390386","0.0-3.0-0.55","partial","Male","70","United States of America","","C404147","BW","freqGain","Mozilla/5.0 (Windows NT 6.1; Win64; x64) AppleWebKit/537.36 (KHTML, like Gecko) Chrome/81.0.4044.138 Safari/537.36","1.22","","1291","","<img src = 'img/A1-B0-L0-W1.jpg' width = '600'>","1","56","","","","",""
"","html-keyboard-response","115","392389","0.0-3.0-1.55","partial","Male","70","United States of America","","C404147","BW","freqGain","Mozilla/5.0 (Windows NT 6.1; Win64; x64) AppleWebKit/537.36 (KHTML, like Gecko) Chrome/81.0.4044.138 Safari/537.36","1.22","","null","","You avoided this hive. You earned <b>0 </b>points.","","56","null","0","69","",""
"","html-button-response","116","393977","0.0-3.0-0.56","partial","Male","70","United States of America","","C404147","BW","freqGain","Mozilla/5.0 (Windows NT 6.1; Win64; x64) AppleWebKit/537.36 (KHTML, like Gecko) Chrome/81.0.4044.138 Safari/537.36","1.22","","1587","","<img src = 'img/A0-B1-L0-W0.jpg' width = '600'>","1","57","","","","",""
"","html-keyboard-response","117","395979","0.0-3.0-1.56","partial","Male","70","United States of America","","C404147","BW","freqGain","Mozilla/5.0 (Windows NT 6.1; Win64; x64) AppleWebKit/537.36 (KHTML, like Gecko) Chrome/81.0.4044.138 Safari/537.36","1.22","","null","","You avoided this hive. You earned <b>0 </b>points.","","57","null","0","69","",""
"","html-button-response","118","397154","0.0-3.0-0.57","partial","Male","70","United States of America","","C404147","BW","freqGain","Mozilla/5.0 (Windows NT 6.1; Win64; x64) AppleWebKit/537.36 (KHTML, like Gecko) Chrome/81.0.4044.138 Safari/537.36","1.22","","1173","","<img src = 'img/A1-B1-L0-W0.jpg' width = '600'>","1","58","","","","",""
"","html-keyboard-response","119","399156","0.0-3.0-1.57","partial","Male","70","United States of America","","C404147","BW","freqGain","Mozilla/5.0 (Windows NT 6.1; Win64; x64) AppleWebKit/537.36 (KHTML, like Gecko) Chrome/81.0.4044.138 Safari/537.36","1.22","","null","","You avoided this hive. You earned <b>0 </b>points.","","58","null","0","69","",""
"","html-button-response","120","400634","0.0-3.0-0.58","partial","Male","70","United States of America","","C404147","BW","freqGain","Mozilla/5.0 (Windows NT 6.1; Win64; x64) AppleWebKit/537.36 (KHTML, like Gecko) Chrome/81.0.4044.138 Safari/537.36","1.22","","1476","","<img src = 'img/A1-B1-L0-W1.jpg' width = '600'>","1","59","","","","",""
"","html-keyboard-response","121","402640","0.0-3.0-1.58","partial","Male","70","United States of America","","C404147","BW","freqGain","Mozilla/5.0 (Windows NT 6.1; Win64; x64) AppleWebKit/537.36 (KHTML, like Gecko) Chrome/81.0.4044.138 Safari/537.36","1.22","","null","","You avoided this hive. You earned <b>0 </b>points.","","59","null","0","69","",""
"","html-button-response","122","403898","0.0-3.0-0.59","partial","Male","70","United States of America","","C404147","BW","freqGain","Mozilla/5.0 (Windows NT 6.1; Win64; x64) AppleWebKit/537.36 (KHTML, like Gecko) Chrome/81.0.4044.138 Safari/537.36","1.22","","1256","","<img src = 'img/A0-B0-L1-W0.jpg' width = '600'>","1","60","","","","",""
"","html-keyboard-response","123","405900","0.0-3.0-1.59","partial","Male","70","United States of America","","C404147","BW","freqGain","Mozilla/5.0 (Windows NT 6.1; Win64; x64) AppleWebKit/537.36 (KHTML, like Gecko) Chrome/81.0.4044.138 Safari/537.36","1.22","","null","","You avoided this hive. You earned <b>0 </b>points.","","60","null","0","69","",""
"","html-button-response","124","408386","0.0-3.0-0.60","partial","Male","70","United States of America","","C404147","BW","freqGain","Mozilla/5.0 (Windows NT 6.1; Win64; x64) AppleWebKit/537.36 (KHTML, like Gecko) Chrome/81.0.4044.138 Safari/537.36","1.22","","2483","","<img src = 'img/A1-B1-L1-W1.jpg' width = '600'>","1","61","","","","",""
"","html-keyboard-response","125","410389","0.0-3.0-1.60","partial","Male","70","United States of America","","C404147","BW","freqGain","Mozilla/5.0 (Windows NT 6.1; Win64; x64) AppleWebKit/537.36 (KHTML, like Gecko) Chrome/81.0.4044.138 Safari/537.36","1.22","","null","","You avoided this hive. You earned <b>0 </b>points.","","61","null","0","69","",""
"","html-button-response","126","412353","0.0-3.0-0.61","partial","Male","70","United States of America","","C404147","BW","freqGain","Mozilla/5.0 (Windows NT 6.1; Win64; x64) AppleWebKit/537.36 (KHTML, like Gecko) Chrome/81.0.4044.138 Safari/537.36","1.22","","1962","","<img src = 'img/A0-B0-L1-W1.jpg' width = '600'>","1","62","","","","",""
"","html-keyboard-response","127","414357","0.0-3.0-1.61","partial","Male","70","United States of America","","C404147","BW","freqGain","Mozilla/5.0 (Windows NT 6.1; Win64; x64) AppleWebKit/537.36 (KHTML, like Gecko) Chrome/81.0.4044.138 Safari/537.36","1.22","","null","","You avoided this hive. You earned <b>0 </b>points.","","62","null","0","69","",""
"","html-button-response","128","416339","0.0-3.0-0.62","partial","Male","70","United States of America","","C404147","BW","freqGain","Mozilla/5.0 (Windows NT 6.1; Win64; x64) AppleWebKit/537.36 (KHTML, like Gecko) Chrome/81.0.4044.138 Safari/537.36","1.22","","1979","","<img src = 'img/A1-B0-L1-W1.jpg' width = '600'>","1","63","","","","",""
"","html-keyboard-response","129","418341","0.0-3.0-1.62","partial","Male","70","United States of America","","C404147","BW","freqGain","Mozilla/5.0 (Windows NT 6.1; Win64; x64) AppleWebKit/537.36 (KHTML, like Gecko) Chrome/81.0.4044.138 Safari/537.36","1.22","","null","","You avoided this hive. You earned <b>0 </b>points.","","63","null","0","69","",""
"","html-button-response","130","419571","0.0-3.0-0.63","partial","Male","70","United States of America","","C404147","BW","freqGain","Mozilla/5.0 (Windows NT 6.1; Win64; x64) AppleWebKit/537.36 (KHTML, like Gecko) Chrome/81.0.4044.138 Safari/537.36","1.22","","1227","","<img src = 'img/A1-B0-L1-W0.jpg' width = '600'>","1","64","","","","",""
"","html-keyboard-response","131","421572","0.0-3.0-1.63","partial","Male","70","United States of America","","C404147","BW","freqGain","Mozilla/5.0 (Windows NT 6.1; Win64; x64) AppleWebKit/537.36 (KHTML, like Gecko) Chrome/81.0.4044.138 Safari/537.36","1.22","","null","","You avoided this hive. You earned <b>0 </b>points.","","64","null","0","69","",""
"","html-button-response","132","422851","0.0-3.0-0.64","partial","Male","70","United States of America","","C404147","BW","freqGain","Mozilla/5.0 (Windows NT 6.1; Win64; x64) AppleWebKit/537.36 (KHTML, like Gecko) Chrome/81.0.4044.138 Safari/537.36","1.22","","1276","","<img src = 'img/A1-B1-L1-W0.jpg' width = '600'>","1","65","","","","",""
"","html-keyboard-response","133","424852","0.0-3.0-1.64","partial","Male","70","United States of America","","C404147","BW","freqGain","Mozilla/5.0 (Windows NT 6.1; Win64; x64) AppleWebKit/537.36 (KHTML, like Gecko) Chrome/81.0.4044.138 Safari/537.36","1.22","","null","","You avoided this hive. You earned <b>0 </b>points.","","65","null","0","69","",""
"","html-button-response","134","426818","0.0-3.0-0.65","partial","Male","70","United States of America","","C404147","BW","freqGain","Mozilla/5.0 (Windows NT 6.1; Win64; x64) AppleWebKit/537.36 (KHTML, like Gecko) Chrome/81.0.4044.138 Safari/537.36","1.22","","1963","","<img src = 'img/A0-B1-L0-W1.jpg' width = '600'>","0","66","","","","",""
"","html-keyboard-response","135","428819","0.0-3.0-1.65","partial","Male","70","United States of America","","C404147","BW","freqGain","Mozilla/5.0 (Windows NT 6.1; Win64; x64) AppleWebKit/537.36 (KHTML, like Gecko) Chrome/81.0.4044.138 Safari/537.36","1.22","","null","","You successfully harvested honey! You earned <b>3 </b>points.","","66","null","3","72","",""
"","html-button-response","136","432962","0.0-3.0-0.66","partial","Male","70","United States of America","","C404147","BW","freqGain","Mozilla/5.0 (Windows NT 6.1; Win64; x64) AppleWebKit/537.36 (KHTML, like Gecko) Chrome/81.0.4044.138 Safari/537.36","1.22","","4141","","<img src = 'img/A0-B1-L1-W1.jpg' width = '600'>","0","67","","","","",""
"","html-keyboard-response","137","434964","0.0-3.0-1.66","partial","Male","70","United States of America","","C404147","BW","freqGain","Mozilla/5.0 (Windows NT 6.1; Win64; x64) AppleWebKit/537.36 (KHTML, like Gecko) Chrome/81.0.4044.138 Safari/537.36","1.22","","null","","You successfully harvested honey! You earned <b>3 </b>points.","","67","null","3","75","",""
"","html-button-response","138","439658","0.0-3.0-0.67","partial","Male","70","United States of America","","C404147","BW","freqGain","Mozilla/5.0 (Windows NT 6.1; Win64; x64) AppleWebKit/537.36 (KHTML, like Gecko) Chrome/81.0.4044.138 Safari/537.36","1.22","","4691","","<img src = 'img/A1-B0-L0-W0.jpg' width = '600'>","1","68","","","","",""
"","html-keyboard-response","139","441660","0.0-3.0-1.67","partial","Male","70","United States of America","","C404147","BW","freqGain","Mozilla/5.0 (Windows NT 6.1; Win64; x64) AppleWebKit/537.36 (KHTML, like Gecko) Chrome/81.0.4044.138 Safari/537.36","1.22","","null","","You avoided this hive. You earned <b>0 </b>points.","","68","null","0","75","",""
"","html-button-response","140","443978","0.0-3.0-0.68","partial","Male","70","United States of America","","C404147","BW","freqGain","Mozilla/5.0 (Windows NT 6.1; Win64; x64) AppleWebKit/537.36 (KHTML, like Gecko) Chrome/81.0.4044.138 Safari/537.36","1.22","","2316","","<img src = 'img/A0-B1-L1-W0.jpg' width = '600'>","1","69","","","","",""
"","html-keyboard-response","141","445980","0.0-3.0-1.68","partial","Male","70","United States of America","","C404147","BW","freqGain","Mozilla/5.0 (Windows NT 6.1; Win64; x64) AppleWebKit/537.36 (KHTML, like Gecko) Chrome/81.0.4044.138 Safari/537.36","1.22","","null","","You avoided this hive. You earned <b>0 </b>points.","","69","null","0","75","",""
"","html-button-response","142","447226","0.0-3.0-0.69","partial","Male","70","United States of America","","C404147","BW","freqGain","Mozilla/5.0 (Windows NT 6.1; Win64; x64) AppleWebKit/537.36 (KHTML, like Gecko) Chrome/81.0.4044.138 Safari/537.36","1.22","","1243","","<img src = 'img/A0-B0-L0-W0.jpg' width = '600'>","1","70","","","","",""
"","html-keyboard-response","143","449228","0.0-3.0-1.69","partial","Male","70","United States of America","","C404147","BW","freqGain","Mozilla/5.0 (Windows NT 6.1; Win64; x64) AppleWebKit/537.36 (KHTML, like Gecko) Chrome/81.0.4044.138 Safari/537.36","1.22","","null","","You avoided this hive. You earned <b>0 </b>points.","","70","null","0","75","",""
"","html-button-response","144","450841","0.0-3.0-0.70","partial","Male","70","United States of America","","C404147","BW","freqGain","Mozilla/5.0 (Windows NT 6.1; Win64; x64) AppleWebKit/537.36 (KHTML, like Gecko) Chrome/81.0.4044.138 Safari/537.36","1.22","","1612","","<img src = 'img/A1-B1-L1-W0.jpg' width = '600'>","1","71","","","","",""
"","html-keyboard-response","145","452843","0.0-3.0-1.70","partial","Male","70","United States of America","","C404147","BW","freqGain","Mozilla/5.0 (Windows NT 6.1; Win64; x64) AppleWebKit/537.36 (KHTML, like Gecko) Chrome/81.0.4044.138 Safari/537.36","1.22","","null","","You avoided this hive. You earned <b>0 </b>points.","","71","null","0","75","",""
"","html-button-response","146","454553","0.0-3.0-0.71","partial","Male","70","United States of America","","C404147","BW","freqGain","Mozilla/5.0 (Windows NT 6.1; Win64; x64) AppleWebKit/537.36 (KHTML, like Gecko) Chrome/81.0.4044.138 Safari/537.36","1.22","","1709","","<img src = 'img/A0-B1-L0-W0.jpg' width = '600'>","1","72","","","","",""
"","html-keyboard-response","147","456555","0.0-3.0-1.71","partial","Male","70","United States of America","","C404147","BW","freqGain","Mozilla/5.0 (Windows NT 6.1; Win64; x64) AppleWebKit/537.36 (KHTML, like Gecko) Chrome/81.0.4044.138 Safari/537.36","1.22","","null","","You avoided this hive. You earned <b>0 </b>points.","","72","null","0","75","",""
"","html-button-response","148","458761","0.0-3.0-0.72","partial","Male","70","United States of America","","C404147","BW","freqGain","Mozilla/5.0 (Windows NT 6.1; Win64; x64) AppleWebKit/537.36 (KHTML, like Gecko) Chrome/81.0.4044.138 Safari/537.36","1.22","","2204","","<img src = 'img/A0-B1-L1-W1.jpg' width = '600'>","0","73","","","","",""
"","html-keyboard-response","149","460763","0.0-3.0-1.72","partial","Male","70","United States of America","","C404147","BW","freqGain","Mozilla/5.0 (Windows NT 6.1; Win64; x64) AppleWebKit/537.36 (KHTML, like Gecko) Chrome/81.0.4044.138 Safari/537.36","1.22","","null","","You successfully harvested honey! You earned <b>3 </b>points.","","73","null","3","78","",""
"","html-button-response","150","463385","0.0-3.0-0.73","partial","Male","70","United States of America","","C404147","BW","freqGain","Mozilla/5.0 (Windows NT 6.1; Win64; x64) AppleWebKit/537.36 (KHTML, like Gecko) Chrome/81.0.4044.138 Safari/537.36","1.22","","2620","","<img src = 'img/A0-B0-L1-W0.jpg' width = '600'>","1","74","","","","",""
"","html-keyboard-response","151","465388","0.0-3.0-1.73","partial","Male","70","United States of America","","C404147","BW","freqGain","Mozilla/5.0 (Windows NT 6.1; Win64; x64) AppleWebKit/537.36 (KHTML, like Gecko) Chrome/81.0.4044.138 Safari/537.36","1.22","","null","","You avoided this hive. You earned <b>0 </b>points.","","74","null","0","78","",""
"","html-button-response","152","468617","0.0-3.0-0.74","partial","Male","70","United States of America","","C404147","BW","freqGain","Mozilla/5.0 (Windows NT 6.1; Win64; x64) AppleWebKit/537.36 (KHTML, like Gecko) Chrome/81.0.4044.138 Safari/537.36","1.22","","3227","","<img src = 'img/A0-B1-L0-W1.jpg' width = '600'>","0","75","","","","",""
"","html-keyboard-response","153","470619","0.0-3.0-1.74","partial","Male","70","United States of America","","C404147","BW","freqGain","Mozilla/5.0 (Windows NT 6.1; Win64; x64) AppleWebKit/537.36 (KHTML, like Gecko) Chrome/81.0.4044.138 Safari/537.36","1.22","","null","","You successfully harvested honey! You earned <b>3 </b>points.","","75","null","3","81","",""
"","html-button-response","154","472393","0.0-3.0-0.75","partial","Male","70","United States of America","","C404147","BW","freqGain","Mozilla/5.0 (Windows NT 6.1; Win64; x64) AppleWebKit/537.36 (KHTML, like Gecko) Chrome/81.0.4044.138 Safari/537.36","1.22","","1772","","<img src = 'img/A1-B1-L1-W1.jpg' width = '600'>","0","76","","","","",""
"","html-keyboard-response","155","474398","0.0-3.0-1.75","partial","Male","70","United States of America","","C404147","BW","freqGain","Mozilla/5.0 (Windows NT 6.1; Win64; x64) AppleWebKit/537.36 (KHTML, like Gecko) Chrome/81.0.4044.138 Safari/537.36","1.22","","null","","Ouch, you were stung! You lost <b>-1 </b>point.","","76","null","-1","80","",""
"","html-button-response","156","476907","0.0-3.0-0.76","partial","Male","70","United States of America","","C404147","BW","freqGain","Mozilla/5.0 (Windows NT 6.1; Win64; x64) AppleWebKit/537.36 (KHTML, like Gecko) Chrome/81.0.4044.138 Safari/537.36","1.22","","2507","","<img src = 'img/A0-B1-L0-W1.jpg' width = '600'>","0","77","","","","",""
"","html-keyboard-response","157","478909","0.0-3.0-1.76","partial","Male","70","United States of America","","C404147","BW","freqGain","Mozilla/5.0 (Windows NT 6.1; Win64; x64) AppleWebKit/537.36 (KHTML, like Gecko) Chrome/81.0.4044.138 Safari/537.36","1.22","","null","","You successfully harvested honey! You earned <b>3 </b>points.","","77","null","3","83","",""
"","html-button-response","158","481466","0.0-3.0-0.77","partial","Male","70","United States of America","","C404147","BW","freqGain","Mozilla/5.0 (Windows NT 6.1; Win64; x64) AppleWebKit/537.36 (KHTML, like Gecko) Chrome/81.0.4044.138 Safari/537.36","1.22","","2555","","<img src = 'img/A0-B0-L1-W1.jpg' width = '600'>","0","78","","","","",""
"","html-keyboard-response","159","483468","0.0-3.0-1.77","partial","Male","70","United States of America","","C404147","BW","freqGain","Mozilla/5.0 (Windows NT 6.1; Win64; x64) AppleWebKit/537.36 (KHTML, like Gecko) Chrome/81.0.4044.138 Safari/537.36","1.22","","null","","Ouch, you were stung! You lost <b>-1 </b>point.","","78","null","-1","82","",""
"","html-button-response","160","485731","0.0-3.0-0.78","partial","Male","70","United States of America","","C404147","BW","freqGain","Mozilla/5.0 (Windows NT 6.1; Win64; x64) AppleWebKit/537.36 (KHTML, like Gecko) Chrome/81.0.4044.138 Safari/537.36","1.22","","2261","","<img src = 'img/A1-B0-L1-W1.jpg' width = '600'>","1","79","","","","",""
"","html-keyboard-response","161","487733","0.0-3.0-1.78","partial","Male","70","United States of America","","C404147","BW","freqGain","Mozilla/5.0 (Windows NT 6.1; Win64; x64) AppleWebKit/537.36 (KHTML, like Gecko) Chrome/81.0.4044.138 Safari/537.36","1.22","","null","","You avoided this hive. You earned <b>0 </b>points.","","79","null","0","82","",""
"","html-button-response","162","489090","0.0-3.0-0.79","partial","Male","70","United States of America","","C404147","BW","freqGain","Mozilla/5.0 (Windows NT 6.1; Win64; x64) AppleWebKit/537.36 (KHTML, like Gecko) Chrome/81.0.4044.138 Safari/537.36","1.22","","1355","","<img src = 'img/A1-B0-L1-W0.jpg' width = '600'>","1","80","","","","",""
"","html-keyboard-response","163","491092","0.0-3.0-1.79","partial","Male","70","United States of America","","C404147","BW","freqGain","Mozilla/5.0 (Windows NT 6.1; Win64; x64) AppleWebKit/537.36 (KHTML, like Gecko) Chrome/81.0.4044.138 Safari/537.36","1.22","","null","","You avoided this hive. You earned <b>0 </b>points.","","80","null","0","82","",""
"","html-button-response","164","492610","0.0-3.0-0.80","partial","Male","70","United States of America","","C404147","BW","freqGain","Mozilla/5.0 (Windows NT 6.1; Win64; x64) AppleWebKit/537.36 (KHTML, like Gecko) Chrome/81.0.4044.138 Safari/537.36","1.22","","1516","","<img src = 'img/A1-B0-L0-W0.jpg' width = '600'>","1","81","","","","",""
"","html-keyboard-response","165","494612","0.0-3.0-1.80","partial","Male","70","United States of America","","C404147","BW","freqGain","Mozilla/5.0 (Windows NT 6.1; Win64; x64) AppleWebKit/537.36 (KHTML, like Gecko) Chrome/81.0.4044.138 Safari/537.36","1.22","","null","","You avoided this hive. You earned <b>0 </b>points.","","81","null","0","82","",""
"","html-button-response","166","496074","0.0-3.0-0.81","partial","Male","70","United States of America","","C404147","BW","freqGain","Mozilla/5.0 (Windows NT 6.1; Win64; x64) AppleWebKit/537.36 (KHTML, like Gecko) Chrome/81.0.4044.138 Safari/537.36","1.22","","1459","","<img src = 'img/A1-B1-L0-W1.jpg' width = '600'>","1","82","","","","",""
"","html-keyboard-response","167","498076","0.0-3.0-1.81","partial","Male","70","United States of America","","C404147","BW","freqGain","Mozilla/5.0 (Windows NT 6.1; Win64; x64) AppleWebKit/537.36 (KHTML, like Gecko) Chrome/81.0.4044.138 Safari/537.36","1.22","","null","","You avoided this hive. You earned <b>0 </b>points.","","82","null","0","82","",""
"","html-button-response","168","499322","0.0-3.0-0.82","partial","Male","70","United States of America","","C404147","BW","freqGain","Mozilla/5.0 (Windows NT 6.1; Win64; x64) AppleWebKit/537.36 (KHTML, like Gecko) Chrome/81.0.4044.138 Safari/537.36","1.22","","1243","","<img src = 'img/A1-B0-L0-W1.jpg' width = '600'>","1","83","","","","",""
"","html-keyboard-response","169","501323","0.0-3.0-1.82","partial","Male","70","United States of America","","C404147","BW","freqGain","Mozilla/5.0 (Windows NT 6.1; Win64; x64) AppleWebKit/537.36 (KHTML, like Gecko) Chrome/81.0.4044.138 Safari/537.36","1.22","","null","","You avoided this hive. You earned <b>0 </b>points.","","83","null","0","82","",""
"","html-button-response","170","503026","0.0-3.0-0.83","partial","Male","70","United States of America","","C404147","BW","freqGain","Mozilla/5.0 (Windows NT 6.1; Win64; x64) AppleWebKit/537.36 (KHTML, like Gecko) Chrome/81.0.4044.138 Safari/537.36","1.22","","1700","","<img src = 'img/A0-B0-L0-W1.jpg' width = '600'>","1","84","","","","",""
"","html-keyboard-response","171","505027","0.0-3.0-1.83","partial","Male","70","United States of America","","C404147","BW","freqGain","Mozilla/5.0 (Windows NT 6.1; Win64; x64) AppleWebKit/537.36 (KHTML, like Gecko) Chrome/81.0.4044.138 Safari/537.36","1.22","","null","","You avoided this hive. You earned <b>0 </b>points.","","84","null","0","82","",""
"","html-button-response","172","506354","0.0-3.0-0.84","partial","Male","70","United States of America","","C404147","BW","freqGain","Mozilla/5.0 (Windows NT 6.1; Win64; x64) AppleWebKit/537.36 (KHTML, like Gecko) Chrome/81.0.4044.138 Safari/537.36","1.22","","1324","","<img src = 'img/A1-B1-L0-W0.jpg' width = '600'>","1","85","","","","",""
"","html-keyboard-response","173","508355","0.0-3.0-1.84","partial","Male","70","United States of America","","C404147","BW","freqGain","Mozilla/5.0 (Windows NT 6.1; Win64; x64) AppleWebKit/537.36 (KHTML, like Gecko) Chrome/81.0.4044.138 Safari/537.36","1.22","","null","","You avoided this hive. You earned <b>0 </b>points.","","85","null","0","82","",""
"","html-button-response","174","509665","0.0-3.0-0.85","partial","Male","70","United States of America","","C404147","BW","freqGain","Mozilla/5.0 (Windows NT 6.1; Win64; x64) AppleWebKit/537.36 (KHTML, like Gecko) Chrome/81.0.4044.138 Safari/537.36","1.22","","1307","","<img src = 'img/A0-B0-L0-W1.jpg' width = '600'>","1","86","","","","",""
"","html-keyboard-response","175","511667","0.0-3.0-1.85","partial","Male","70","United States of America","","C404147","BW","freqGain","Mozilla/5.0 (Windows NT 6.1; Win64; x64) AppleWebKit/537.36 (KHTML, like Gecko) Chrome/81.0.4044.138 Safari/537.36","1.22","","null","","You avoided this hive. You earned <b>0 </b>points.","","86","null","0","82","",""
"","html-button-response","176","513521","0.0-3.0-0.86","partial","Male","70","United States of America","","C404147","BW","freqGain","Mozilla/5.0 (Windows NT 6.1; Win64; x64) AppleWebKit/537.36 (KHTML, like Gecko) Chrome/81.0.4044.138 Safari/537.36","1.22","","1854","","<img src = 'img/A1-B1-L0-W0.jpg' width = '600'>","1","87","","","","",""
"","html-keyboard-response","177","515524","0.0-3.0-1.86","partial","Male","70","United States of America","","C404147","BW","freqGain","Mozilla/5.0 (Windows NT 6.1; Win64; x64) AppleWebKit/537.36 (KHTML, like Gecko) Chrome/81.0.4044.138 Safari/537.36","1.22","","null","","You avoided this hive. You earned <b>0 </b>points.","","87","null","0","82","",""
"","html-button-response","178","517201","0.0-3.0-0.87","partial","Male","70","United States of America","","C404147","BW","freqGain","Mozilla/5.0 (Windows NT 6.1; Win64; x64) AppleWebKit/537.36 (KHTML, like Gecko) Chrome/81.0.4044.138 Safari/537.36","1.22","","1675","","<img src = 'img/A1-B1-L0-W1.jpg' width = '600'>","1","88","","","","",""
"","html-keyboard-response","179","519203","0.0-3.0-1.87","partial","Male","70","United States of America","","C404147","BW","freqGain","Mozilla/5.0 (Windows NT 6.1; Win64; x64) AppleWebKit/537.36 (KHTML, like Gecko) Chrome/81.0.4044.138 Safari/537.36","1.22","","null","","You avoided this hive. You earned <b>0 </b>points.","","88","null","0","82","",""
"","html-button-response","180","521169","0.0-3.0-0.88","partial","Male","70","United States of America","","C404147","BW","freqGain","Mozilla/5.0 (Windows NT 6.1; Win64; x64) AppleWebKit/537.36 (KHTML, like Gecko) Chrome/81.0.4044.138 Safari/537.36","1.22","","1964","","<img src = 'img/A0-B1-L1-W0.jpg' width = '600'>","1","89","","","","",""
"","html-keyboard-response","181","523171","0.0-3.0-1.88","partial","Male","70","United States of America","","C404147","BW","freqGain","Mozilla/5.0 (Windows NT 6.1; Win64; x64) AppleWebKit/537.36 (KHTML, like Gecko) Chrome/81.0.4044.138 Safari/537.36","1.22","","null","","You avoided this hive. You earned <b>0 </b>points.","","89","null","0","82","",""
"","html-button-response","182","524369","0.0-3.0-0.89","partial","Male","70","United States of America","","C404147","BW","freqGain","Mozilla/5.0 (Windows NT 6.1; Win64; x64) AppleWebKit/537.36 (KHTML, like Gecko) Chrome/81.0.4044.138 Safari/537.36","1.22","","1196","","<img src = 'img/A0-B1-L0-W0.jpg' width = '600'>","1","90","","","","",""
"","html-keyboard-response","183","526372","0.0-3.0-1.89","partial","Male","70","United States of America","","C404147","BW","freqGain","Mozilla/5.0 (Windows NT 6.1; Win64; x64) AppleWebKit/537.36 (KHTML, like Gecko) Chrome/81.0.4044.138 Safari/537.36","1.22","","null","","You avoided this hive. You earned <b>0 </b>points.","","90","null","0","82","",""
"","html-button-response","184","527561","0.0-3.0-0.90","partial","Male","70","United States of America","","C404147","BW","freqGain","Mozilla/5.0 (Windows NT 6.1; Win64; x64) AppleWebKit/537.36 (KHTML, like Gecko) Chrome/81.0.4044.138 Safari/537.36","1.22","","1186","","<img src = 'img/A1-B0-L1-W0.jpg' width = '600'>","1","91","","","","",""
"","html-keyboard-response","185","529563","0.0-3.0-1.90","partial","Male","70","United States of America","","C404147","BW","freqGain","Mozilla/5.0 (Windows NT 6.1; Win64; x64) AppleWebKit/537.36 (KHTML, like Gecko) Chrome/81.0.4044.138 Safari/537.36","1.22","","null","","You avoided this hive. You earned <b>0 </b>points.","","91","null","0","82","",""
"","html-button-response","186","531044","0.0-3.0-0.91","partial","Male","70","United States of America","","C404147","BW","freqGain","Mozilla/5.0 (Windows NT 6.1; Win64; x64) AppleWebKit/537.36 (KHTML, like Gecko) Chrome/81.0.4044.138 Safari/537.36","1.22","","1478","","<img src = 'img/A1-B0-L1-W1.jpg' width = '600'>","1","92","","","","",""
"","html-keyboard-response","187","533046","0.0-3.0-1.91","partial","Male","70","United States of America","","C404147","BW","freqGain","Mozilla/5.0 (Windows NT 6.1; Win64; x64) AppleWebKit/537.36 (KHTML, like Gecko) Chrome/81.0.4044.138 Safari/537.36","1.22","","null","","You avoided this hive. You earned <b>0 </b>points.","","92","null","0","82","",""
"","html-button-response","188","534941","0.0-3.0-0.92","partial","Male","70","United States of America","","C404147","BW","freqGain","Mozilla/5.0 (Windows NT 6.1; Win64; x64) AppleWebKit/537.36 (KHTML, like Gecko) Chrome/81.0.4044.138 Safari/537.36","1.22","","1893","","<img src = 'img/A0-B1-L0-W1.jpg' width = '600'>","0","93","","","","",""
"","html-keyboard-response","189","536943","0.0-3.0-1.92","partial","Male","70","United States of America","","C404147","BW","freqGain","Mozilla/5.0 (Windows NT 6.1; Win64; x64) AppleWebKit/537.36 (KHTML, like Gecko) Chrome/81.0.4044.138 Safari/537.36","1.22","","null","","You successfully harvested honey! You earned <b>3 </b>points.","","93","null","3","85","",""
"","html-button-response","190","539554","0.0-3.0-0.93","partial","Male","70","United States of America","","C404147","BW","freqGain","Mozilla/5.0 (Windows NT 6.1; Win64; x64) AppleWebKit/537.36 (KHTML, like Gecko) Chrome/81.0.4044.138 Safari/537.36","1.22","","2609","","<img src = 'img/A0-B0-L1-W0.jpg' width = '600'>","1","94","","","","",""
"","html-keyboard-response","191","541556","0.0-3.0-1.93","partial","Male","70","United States of America","","C404147","BW","freqGain","Mozilla/5.0 (Windows NT 6.1; Win64; x64) AppleWebKit/537.36 (KHTML, like Gecko) Chrome/81.0.4044.138 Safari/537.36","1.22","","null","","You avoided this hive. You earned <b>0 </b>points.","","94","null","0","85","",""
"","html-button-response","192","544371","0.0-3.0-0.94","partial","Male","70","United States of America","","C404147","BW","freqGain","Mozilla/5.0 (Windows NT 6.1; Win64; x64) AppleWebKit/537.36 (KHTML, like Gecko) Chrome/81.0.4044.138 Safari/537.36","1.22","","2811","","<img src = 'img/A0-B1-L0-W1.jpg' width = '600'>","0","95","","","","",""
"","html-keyboard-response","193","546384","0.0-3.0-1.94","partial","Male","70","United States of America","","C404147","BW","freqGain","Mozilla/5.0 (Windows NT 6.1; Win64; x64) AppleWebKit/537.36 (KHTML, like Gecko) Chrome/81.0.4044.138 Safari/537.36","1.22","","null","","You successfully harvested honey! You earned <b>3 </b>points.","","95","null","3","88","",""
"","html-button-response","194","549641","0.0-3.0-0.95","partial","Male","70","United States of America","","C404147","BW","freqGain","Mozilla/5.0 (Windows NT 6.1; Win64; x64) AppleWebKit/537.36 (KHTML, like Gecko) Chrome/81.0.4044.138 Safari/537.36","1.22","","3255","","<img src = 'img/A0-B0-L1-W1.jpg' width = '600'>","1","96","","","","",""
"","html-keyboard-response","195","551642","0.0-3.0-1.95","partial","Male","70","United States of America","","C404147","BW","freqGain","Mozilla/5.0 (Windows NT 6.1; Win64; x64) AppleWebKit/537.36 (KHTML, like Gecko) Chrome/81.0.4044.138 Safari/537.36","1.22","","null","","You avoided this hive. You earned <b>0 </b>points.","","96","null","0","88","",""
"","html-button-response","196","553225","0.0-3.0-0.96","partial","Male","70","United States of America","","C404147","BW","freqGain","Mozilla/5.0 (Windows NT 6.1; Win64; x64) AppleWebKit/537.36 (KHTML, like Gecko) Chrome/81.0.4044.138 Safari/537.36","1.22","","1581","","<img src = 'img/A1-B1-L1-W1.jpg' width = '600'>","1","97","","","","",""
"","html-keyboard-response","197","555226","0.0-3.0-1.96","partial","Male","70","United States of America","","C404147","BW","freqGain","Mozilla/5.0 (Windows NT 6.1; Win64; x64) AppleWebKit/537.36 (KHTML, like Gecko) Chrome/81.0.4044.138 Safari/537.36","1.22","","null","","You avoided this hive. You earned <b>0 </b>points.","","97","null","0","88","",""
"","html-button-response","198","556978","0.0-3.0-0.97","partial","Male","70","United States of America","","C404147","BW","freqGain","Mozilla/5.0 (Windows NT 6.1; Win64; x64) AppleWebKit/537.36 (KHTML, like Gecko) Chrome/81.0.4044.138 Safari/537.36","1.22","","1749","","<img src = 'img/A1-B1-L1-W0.jpg' width = '600'>","1","98","","","","",""
"","html-keyboard-response","199","558980","0.0-3.0-1.97","partial","Male","70","United States of America","","C404147","BW","freqGain","Mozilla/5.0 (Windows NT 6.1; Win64; x64) AppleWebKit/537.36 (KHTML, like Gecko) Chrome/81.0.4044.138 Safari/537.36","1.22","","null","","You avoided this hive. You earned <b>0 </b>points.","","98","null","0","88","",""
"","html-button-response","200","560002","0.0-3.0-0.98","partial","Male","70","United States of America","","C404147","BW","freqGain","Mozilla/5.0 (Windows NT 6.1; Win64; x64) AppleWebKit/537.36 (KHTML, like Gecko) Chrome/81.0.4044.138 Safari/537.36","1.22","","1021","","<img src = 'img/A1-B0-L0-W0.jpg' width = '600'>","1","99","","","","",""
"","html-keyboard-response","201","562005","0.0-3.0-1.98","partial","Male","70","United States of America","","C404147","BW","freqGain","Mozilla/5.0 (Windows NT 6.1; Win64; x64) AppleWebKit/537.36 (KHTML, like Gecko) Chrome/81.0.4044.138 Safari/537.36","1.22","","null","","You avoided this hive. You earned <b>0 </b>points.","","99","null","0","88","",""
"","html-button-response","202","564974","0.0-3.0-0.99","partial","Male","70","United States of America","","C404147","BW","freqGain","Mozilla/5.0 (Windows NT 6.1; Win64; x64) AppleWebKit/537.36 (KHTML, like Gecko) Chrome/81.0.4044.138 Safari/537.36","1.22","","2966","","<img src = 'img/A0-B1-L1-W1.jpg' width = '600'>","0","100","","","","",""
"","html-keyboard-response","203","566976","0.0-3.0-1.99","partial","Male","70","United States of America","","C404147","BW","freqGain","Mozilla/5.0 (Windows NT 6.1; Win64; x64) AppleWebKit/537.36 (KHTML, like Gecko) Chrome/81.0.4044.138 Safari/537.36","1.22","","null","","You successfully harvested honey! You earned <b>3 </b>points.","","100","null","3","91","",""
"","html-button-response","204","569833","0.0-3.0-0.100","partial","Male","70","United States of America","","C404147","BW","freqGain","Mozilla/5.0 (Windows NT 6.1; Win64; x64) AppleWebKit/537.36 (KHTML, like Gecko) Chrome/81.0.4044.138 Safari/537.36","1.22","","2855","","<img src = 'img/A0-B0-L0-W0.jpg' width = '600'>","1","101","","","","",""
"","html-keyboard-response","205","571835","0.0-3.0-1.100","partial","Male","70","United States of America","","C404147","BW","freqGain","Mozilla/5.0 (Windows NT 6.1; Win64; x64) AppleWebKit/537.36 (KHTML, like Gecko) Chrome/81.0.4044.138 Safari/537.36","1.22","","null","","You avoided this hive. You earned <b>0 </b>points.","","101","null","0","91","",""
"","html-button-response","206","573537","0.0-3.0-0.101","partial","Male","70","United States of America","","C404147","BW","freqGain","Mozilla/5.0 (Windows NT 6.1; Win64; x64) AppleWebKit/537.36 (KHTML, like Gecko) Chrome/81.0.4044.138 Safari/537.36","1.22","","1700","","<img src = 'img/A1-B0-L0-W1.jpg' width = '600'>","1","102","","","","",""
"","html-keyboard-response","207","575539","0.0-3.0-1.101","partial","Male","70","United States of America","","C404147","BW","freqGain","Mozilla/5.0 (Windows NT 6.1; Win64; x64) AppleWebKit/537.36 (KHTML, like Gecko) Chrome/81.0.4044.138 Safari/537.36","1.22","","null","","You avoided this hive. You earned <b>0 </b>points.","","102","null","0","91","",""
"","html-button-response","208","577395","0.0-3.0-0.102","partial","Male","70","United States of America","","C404147","BW","freqGain","Mozilla/5.0 (Windows NT 6.1; Win64; x64) AppleWebKit/537.36 (KHTML, like Gecko) Chrome/81.0.4044.138 Safari/537.36","1.22","","1854","","<img src = 'img/A0-B0-L0-W0.jpg' width = '600'>","1","103","","","","",""
"","html-keyboard-response","209","579397","0.0-3.0-1.102","partial","Male","70","United States of America","","C404147","BW","freqGain","Mozilla/5.0 (Windows NT 6.1; Win64; x64) AppleWebKit/537.36 (KHTML, like Gecko) Chrome/81.0.4044.138 Safari/537.36","1.22","","null","","You avoided this hive. You earned <b>0 </b>points.","","103","null","0","91","",""
"","html-button-response","210","582248","0.0-3.0-0.103","partial","Male","70","United States of America","","C404147","BW","freqGain","Mozilla/5.0 (Windows NT 6.1; Win64; x64) AppleWebKit/537.36 (KHTML, like Gecko) Chrome/81.0.4044.138 Safari/537.36","1.22","","2850","","<img src = 'img/A0-B1-L0-W1.jpg' width = '600'>","0","104","","","","",""
"","html-keyboard-response","211","584250","0.0-3.0-1.103","partial","Male","70","United States of America","","C404147","BW","freqGain","Mozilla/5.0 (Windows NT 6.1; Win64; x64) AppleWebKit/537.36 (KHTML, like Gecko) Chrome/81.0.4044.138 Safari/537.36","1.22","","null","","You successfully harvested honey! You earned <b>3 </b>points.","","104","null","3","94","",""
"","html-button-response","212","586049","0.0-3.0-0.104","partial","Male","70","United States of America","","C404147","BW","freqGain","Mozilla/5.0 (Windows NT 6.1; Win64; x64) AppleWebKit/537.36 (KHTML, like Gecko) Chrome/81.0.4044.138 Safari/537.36","1.22","","1796","","<img src = 'img/A0-B1-L0-W0.jpg' width = '600'>","1","105","","","","",""
"","html-keyboard-response","213","588051","0.0-3.0-1.104","partial","Male","70","United States of America","","C404147","BW","freqGain","Mozilla/5.0 (Windows NT 6.1; Win64; x64) AppleWebKit/537.36 (KHTML, like Gecko) Chrome/81.0.4044.138 Safari/537.36","1.22","","null","","You avoided this hive. You earned <b>0 </b>points.","","105","null","0","94","",""
"","html-button-response","214","590352","0.0-3.0-0.105","partial","Male","70","United States of America","","C404147","BW","freqGain","Mozilla/5.0 (Windows NT 6.1; Win64; x64) AppleWebKit/537.36 (KHTML, like Gecko) Chrome/81.0.4044.138 Safari/537.36","1.22","","2300","","<img src = 'img/A0-B0-L1-W1.jpg' width = '600'>","0","106","","","","",""
"","html-keyboard-response","215","592354","0.0-3.0-1.105","partial","Male","70","United States of America","","C404147","BW","freqGain","Mozilla/5.0 (Windows NT 6.1; Win64; x64) AppleWebKit/537.36 (KHTML, like Gecko) Chrome/81.0.4044.138 Safari/537.36","1.22","","null","","Ouch, you were stung! You lost <b>-1 </b>point.","","106","null","-1","93","",""
"","html-button-response","216","597209","0.0-3.0-0.106","partial","Male","70","United States of America","","C404147","BW","freqGain","Mozilla/5.0 (Windows NT 6.1; Win64; x64) AppleWebKit/537.36 (KHTML, like Gecko) Chrome/81.0.4044.138 Safari/537.36","1.22","","4853","","<img src = 'img/A0-B1-L1-W1.jpg' width = '600'>","0","107","","","","",""
"","html-keyboard-response","217","599211","0.0-3.0-1.106","partial","Male","70","United States of America","","C404147","BW","freqGain","Mozilla/5.0 (Windows NT 6.1; Win64; x64) AppleWebKit/537.36 (KHTML, like Gecko) Chrome/81.0.4044.138 Safari/537.36","1.22","","null","","You successfully harvested honey! You earned <b>3 </b>points.","","107","null","3","96","",""
"","html-button-response","218","600849","0.0-3.0-0.107","partial","Male","70","United States of America","","C404147","BW","freqGain","Mozilla/5.0 (Windows NT 6.1; Win64; x64) AppleWebKit/537.36 (KHTML, like Gecko) Chrome/81.0.4044.138 Safari/537.36","1.22","","1635","","<img src = 'img/A1-B0-L0-W0.jpg' width = '600'>","1","108","","","","",""
"","html-keyboard-response","219","602850","0.0-3.0-1.107","partial","Male","70","United States of America","","C404147","BW","freqGain","Mozilla/5.0 (Windows NT 6.1; Win64; x64) AppleWebKit/537.36 (KHTML, like Gecko) Chrome/81.0.4044.138 Safari/537.36","1.22","","null","","You avoided this hive. You earned <b>0 </b>points.","","108","null","0","96","",""
"","html-button-response","220","605833","0.0-3.0-0.108","partial","Male","70","United States of America","","C404147","BW","freqGain","Mozilla/5.0 (Windows NT 6.1; Win64; x64) AppleWebKit/537.36 (KHTML, like Gecko) Chrome/81.0.4044.138 Safari/537.36","1.22","","2981","","<img src = 'img/A1-B0-L1-W0.jpg' width = '600'>","1","109","","","","",""
"","html-keyboard-response","221","607835","0.0-3.0-1.108","partial","Male","70","United States of America","","C404147","BW","freqGain","Mozilla/5.0 (Windows NT 6.1; Win64; x64) AppleWebKit/537.36 (KHTML, like Gecko) Chrome/81.0.4044.138 Safari/537.36","1.22","","null","","You avoided this hive. You earned <b>0 </b>points.","","109","null","0","96","",""
"","html-button-response","222","609289","0.0-3.0-0.109","partial","Male","70","United States of America","","C404147","BW","freqGain","Mozilla/5.0 (Windows NT 6.1; Win64; x64) AppleWebKit/537.36 (KHTML, like Gecko) Chrome/81.0.4044.138 Safari/537.36","1.22","","1452","","<img src = 'img/A0-B0-L1-W0.jpg' width = '600'>","1","110","","","","",""
"","html-keyboard-response","223","611292","0.0-3.0-1.109","partial","Male","70","United States of America","","C404147","BW","freqGain","Mozilla/5.0 (Windows NT 6.1; Win64; x64) AppleWebKit/537.36 (KHTML, like Gecko) Chrome/81.0.4044.138 Safari/537.36","1.22","","null","","You avoided this hive. You earned <b>0 </b>points.","","110","null","0","96","",""
"","html-button-response","224","613529","0.0-3.0-0.110","partial","Male","70","United States of America","","C404147","BW","freqGain","Mozilla/5.0 (Windows NT 6.1; Win64; x64) AppleWebKit/537.36 (KHTML, like Gecko) Chrome/81.0.4044.138 Safari/537.36","1.22","","2235","","<img src = 'img/A0-B1-L0-W1.jpg' width = '600'>","0","111","","","","",""
"","html-keyboard-response","225","615531","0.0-3.0-1.110","partial","Male","70","United States of America","","C404147","BW","freqGain","Mozilla/5.0 (Windows NT 6.1; Win64; x64) AppleWebKit/537.36 (KHTML, like Gecko) Chrome/81.0.4044.138 Safari/537.36","1.22","","null","","You successfully harvested honey! You earned <b>3 </b>points.","","111","null","3","99","",""
"","html-button-response","226","617673","0.0-3.0-0.111","partial","Male","70","United States of America","","C404147","BW","freqGain","Mozilla/5.0 (Windows NT 6.1; Win64; x64) AppleWebKit/537.36 (KHTML, like Gecko) Chrome/81.0.4044.138 Safari/537.36","1.22","","2140","","<img src = 'img/A1-B1-L0-W1.jpg' width = '600'>","1","112","","","","",""
"","html-keyboard-response","227","619675","0.0-3.0-1.111","partial","Male","70","United States of America","","C404147","BW","freqGain","Mozilla/5.0 (Windows NT 6.1; Win64; x64) AppleWebKit/537.36 (KHTML, like Gecko) Chrome/81.0.4044.138 Safari/537.36","1.22","","null","","You avoided this hive. You earned <b>0 </b>points.","","112","null","0","99","",""
"","html-button-response","228","620993","0.0-3.0-0.112","partial","Male","70","United States of America","","C404147","BW","freqGain","Mozilla/5.0 (Windows NT 6.1; Win64; x64) AppleWebKit/537.36 (KHTML, like Gecko) Chrome/81.0.4044.138 Safari/537.36","1.22","","1316","","<img src = 'img/A1-B1-L0-W0.jpg' width = '600'>","1","113","","","","",""
"","html-keyboard-response","229","622995","0.0-3.0-1.112","partial","Male","70","United States of America","","C404147","BW","freqGain","Mozilla/5.0 (Windows NT 6.1; Win64; x64) AppleWebKit/537.36 (KHTML, like Gecko) Chrome/81.0.4044.138 Safari/537.36","1.22","","null","","You avoided this hive. You earned <b>0 </b>points.","","113","null","0","99","",""
"","html-button-response","230","624488","0.0-3.0-0.113","partial","Male","70","United States of America","","C404147","BW","freqGain","Mozilla/5.0 (Windows NT 6.1; Win64; x64) AppleWebKit/537.36 (KHTML, like Gecko) Chrome/81.0.4044.138 Safari/537.36","1.22","","1492","","<img src = 'img/A0-B1-L1-W0.jpg' width = '600'>","1","114","","","","",""
"","html-keyboard-response","231","626489","0.0-3.0-1.113","partial","Male","70","United States of America","","C404147","BW","freqGain","Mozilla/5.0 (Windows NT 6.1; Win64; x64) AppleWebKit/537.36 (KHTML, like Gecko) Chrome/81.0.4044.138 Safari/537.36","1.22","","null","","You avoided this hive. You earned <b>0 </b>points.","","114","null","0","99","",""
"","html-button-response","232","628000","0.0-3.0-0.114","partial","Male","70","United States of America","","C404147","BW","freqGain","Mozilla/5.0 (Windows NT 6.1; Win64; x64) AppleWebKit/537.36 (KHTML, like Gecko) Chrome/81.0.4044.138 Safari/537.36","1.22","","1508","","<img src = 'img/A0-B0-L0-W1.jpg' width = '600'>","1","115","","","","",""
"","html-keyboard-response","233","630001","0.0-3.0-1.114","partial","Male","70","United States of America","","C404147","BW","freqGain","Mozilla/5.0 (Windows NT 6.1; Win64; x64) AppleWebKit/537.36 (KHTML, like Gecko) Chrome/81.0.4044.138 Safari/537.36","1.22","","null","","You avoided this hive. You earned <b>0 </b>points.","","115","null","0","99","",""
"","html-button-response","234","631240","0.0-3.0-0.115","partial","Male","70","United States of America","","C404147","BW","freqGain","Mozilla/5.0 (Windows NT 6.1; Win64; x64) AppleWebKit/537.36 (KHTML, like Gecko) Chrome/81.0.4044.138 Safari/537.36","1.22","","1236","","<img src = 'img/A1-B0-L0-W1.jpg' width = '600'>","1","116","","","","",""
"","html-keyboard-response","235","633242","0.0-3.0-1.115","partial","Male","70","United States of America","","C404147","BW","freqGain","Mozilla/5.0 (Windows NT 6.1; Win64; x64) AppleWebKit/537.36 (KHTML, like Gecko) Chrome/81.0.4044.138 Safari/537.36","1.22","","null","","You avoided this hive. You earned <b>0 </b>points.","","116","null","0","99","",""
"","html-button-response","236","634720","0.0-3.0-0.116","partial","Male","70","United States of America","","C404147","BW","freqGain","Mozilla/5.0 (Windows NT 6.1; Win64; x64) AppleWebKit/537.36 (KHTML, like Gecko) Chrome/81.0.4044.138 Safari/537.36","1.22","","1475","","<img src = 'img/A1-B0-L1-W1.jpg' width = '600'>","1","117","","","","",""
"","html-keyboard-response","237","636722","0.0-3.0-1.116","partial","Male","70","United States of America","","C404147","BW","freqGain","Mozilla/5.0 (Windows NT 6.1; Win64; x64) AppleWebKit/537.36 (KHTML, like Gecko) Chrome/81.0.4044.138 Safari/537.36","1.22","","null","","You avoided this hive. You earned <b>0 </b>points.","","117","null","0","99","",""
"","html-button-response","238","638360","0.0-3.0-0.117","partial","Male","70","United States of America","","C404147","BW","freqGain","Mozilla/5.0 (Windows NT 6.1; Win64; x64) AppleWebKit/537.36 (KHTML, like Gecko) Chrome/81.0.4044.138 Safari/537.36","1.22","","1635","","<img src = 'img/A1-B1-L1-W0.jpg' width = '600'>","1","118","","","","",""
"","html-keyboard-response","239","640362","0.0-3.0-1.117","partial","Male","70","United States of America","","C404147","BW","freqGain","Mozilla/5.0 (Windows NT 6.1; Win64; x64) AppleWebKit/537.36 (KHTML, like Gecko) Chrome/81.0.4044.138 Safari/537.36","1.22","","null","","You avoided this hive. You earned <b>0 </b>points.","","118","null","0","99","",""
"","html-button-response","240","642080","0.0-3.0-0.118","partial","Male","70","United States of America","","C404147","BW","freqGain","Mozilla/5.0 (Windows NT 6.1; Win64; x64) AppleWebKit/537.36 (KHTML, like Gecko) Chrome/81.0.4044.138 Safari/537.36","1.22","","1716","","<img src = 'img/A1-B1-L1-W1.jpg' width = '600'>","1","119","","","","",""
"","html-keyboard-response","241","644081","0.0-3.0-1.118","partial","Male","70","United States of America","","C404147","BW","freqGain","Mozilla/5.0 (Windows NT 6.1; Win64; x64) AppleWebKit/537.36 (KHTML, like Gecko) Chrome/81.0.4044.138 Safari/537.36","1.22","","null","","You avoided this hive. You earned <b>0 </b>points.","","119","null","0","99","",""
"","html-button-response","242","645136","0.0-3.0-0.119","partial","Male","70","United States of America","","C404147","BW","freqGain","Mozilla/5.0 (Windows NT 6.1; Win64; x64) AppleWebKit/537.36 (KHTML, like Gecko) Chrome/81.0.4044.138 Safari/537.36","1.22","","1052","","<img src = 'img/A1-B1-L1-W0.jpg' width = '600'>","1","120","","","","",""
"","html-keyboard-response","243","647137","0.0-3.0-1.119","partial","Male","70","United States of America","","C404147","BW","freqGain","Mozilla/5.0 (Windows NT 6.1; Win64; x64) AppleWebKit/537.36 (KHTML, like Gecko) Chrome/81.0.4044.138 Safari/537.36","1.22","","null","","You avoided this hive. You earned <b>0 </b>points.","","120","null","0","99","",""
"","html-button-response","244","648512","0.0-3.0-0.120","partial","Male","70","United States of America","","C404147","BW","freqGain","Mozilla/5.0 (Windows NT 6.1; Win64; x64) AppleWebKit/537.36 (KHTML, like Gecko) Chrome/81.0.4044.138 Safari/537.36","1.22","","1372","","<img src = 'img/A1-B0-L1-W1.jpg' width = '600'>","1","121","","","","",""
"","html-keyboard-response","245","650514","0.0-3.0-1.120","partial","Male","70","United States of America","","C404147","BW","freqGain","Mozilla/5.0 (Windows NT 6.1; Win64; x64) AppleWebKit/537.36 (KHTML, like Gecko) Chrome/81.0.4044.138 Safari/537.36","1.22","","null","","You avoided this hive. You earned <b>0 </b>points.","","121","null","0","99","",""
"","html-button-response","246","651735","0.0-3.0-0.121","partial","Male","70","United States of America","","C404147","BW","freqGain","Mozilla/5.0 (Windows NT 6.1; Win64; x64) AppleWebKit/537.36 (KHTML, like Gecko) Chrome/81.0.4044.138 Safari/537.36","1.22","","1220","","<img src = 'img/A1-B1-L0-W0.jpg' width = '600'>","1","122","","","","",""
"","html-keyboard-response","247","653737","0.0-3.0-1.121","partial","Male","70","United States of America","","C404147","BW","freqGain","Mozilla/5.0 (Windows NT 6.1; Win64; x64) AppleWebKit/537.36 (KHTML, like Gecko) Chrome/81.0.4044.138 Safari/537.36","1.22","","null","","You avoided this hive. You earned <b>0 </b>points.","","122","null","0","99","",""
"","html-button-response","248","656040","0.0-3.0-0.122","partial","Male","70","United States of America","","C404147","BW","freqGain","Mozilla/5.0 (Windows NT 6.1; Win64; x64) AppleWebKit/537.36 (KHTML, like Gecko) Chrome/81.0.4044.138 Safari/537.36","1.22","","2301","","<img src = 'img/A0-B1-L0-W1.jpg' width = '600'>","0","123","","","","",""
"","html-keyboard-response","249","658044","0.0-3.0-1.122","partial","Male","70","United States of America","","C404147","BW","freqGain","Mozilla/5.0 (Windows NT 6.1; Win64; x64) AppleWebKit/537.36 (KHTML, like Gecko) Chrome/81.0.4044.138 Safari/537.36","1.22","","null","","You successfully harvested honey! You earned <b>3 </b>points.","","123","null","3","102","",""
"","html-button-response","250","659641","0.0-3.0-0.123","partial","Male","70","United States of America","","C404147","BW","freqGain","Mozilla/5.0 (Windows NT 6.1; Win64; x64) AppleWebKit/537.36 (KHTML, like Gecko) Chrome/81.0.4044.138 Safari/537.36","1.22","","1595","","<img src = 'img/A0-B0-L1-W1.jpg' width = '600'>","1","124","","","","",""
"","html-keyboard-response","251","661643","0.0-3.0-1.123","partial","Male","70","United States of America","","C404147","BW","freqGain","Mozilla/5.0 (Windows NT 6.1; Win64; x64) AppleWebKit/537.36 (KHTML, like Gecko) Chrome/81.0.4044.138 Safari/537.36","1.22","","null","","You avoided this hive. You earned <b>0 </b>points.","","124","null","0","102","",""
"","html-button-response","252","663857","0.0-3.0-0.124","partial","Male","70","United States of America","","C404147","BW","freqGain","Mozilla/5.0 (Windows NT 6.1; Win64; x64) AppleWebKit/537.36 (KHTML, like Gecko) Chrome/81.0.4044.138 Safari/537.36","1.22","","2212","","<img src = 'img/A0-B1-L1-W0.jpg' width = '600'>","1","125","","","","",""
"","html-keyboard-response","253","665859","0.0-3.0-1.124","partial","Male","70","United States of America","","C404147","BW","freqGain","Mozilla/5.0 (Windows NT 6.1; Win64; x64) AppleWebKit/537.36 (KHTML, like Gecko) Chrome/81.0.4044.138 Safari/537.36","1.22","","null","","You avoided this hive. You earned <b>0 </b>points.","","125","null","0","102","",""
"","html-button-response","254","667673","0.0-3.0-0.125","partial","Male","70","United States of America","","C404147","BW","freqGain","Mozilla/5.0 (Windows NT 6.1; Win64; x64) AppleWebKit/537.36 (KHTML, like Gecko) Chrome/81.0.4044.138 Safari/537.36","1.22","","1811","","<img src = 'img/A1-B0-L0-W1.jpg' width = '600'>","1","126","","","","",""
"","html-keyboard-response","255","669675","0.0-3.0-1.125","partial","Male","70","United States of America","","C404147","BW","freqGain","Mozilla/5.0 (Windows NT 6.1; Win64; x64) AppleWebKit/537.36 (KHTML, like Gecko) Chrome/81.0.4044.138 Safari/537.36","1.22","","null","","You avoided this hive. You earned <b>0 </b>points.","","126","null","0","102","",""
"","html-button-response","256","672081","0.0-3.0-0.126","partial","Male","70","United States of America","","C404147","BW","freqGain","Mozilla/5.0 (Windows NT 6.1; Win64; x64) AppleWebKit/537.36 (KHTML, like Gecko) Chrome/81.0.4044.138 Safari/537.36","1.22","","2404","","<img src = 'img/A0-B1-L1-W1.jpg' width = '600'>","0","127","","","","",""
"","html-keyboard-response","257","674084","0.0-3.0-1.126","partial","Male","70","United States of America","","C404147","BW","freqGain","Mozilla/5.0 (Windows NT 6.1; Win64; x64) AppleWebKit/537.36 (KHTML, like Gecko) Chrome/81.0.4044.138 Safari/537.36","1.22","","null","","You successfully harvested honey! You earned <b>3 </b>points.","","127","null","3","105","",""
"","html-button-response","258","675873","0.0-3.0-0.127","partial","Male","70","United States of America","","C404147","BW","freqGain","Mozilla/5.0 (Windows NT 6.1; Win64; x64) AppleWebKit/537.36 (KHTML, like Gecko) Chrome/81.0.4044.138 Safari/537.36","1.22","","1787","","<img src = 'img/A0-B0-L0-W1.jpg' width = '600'>","1","128","","","","",""
"","html-keyboard-response","259","677875","0.0-3.0-1.127","partial","Male","70","United States of America","","C404147","BW","freqGain","Mozilla/5.0 (Windows NT 6.1; Win64; x64) AppleWebKit/537.36 (KHTML, like Gecko) Chrome/81.0.4044.138 Safari/537.36","1.22","","null","","You avoided this hive. You earned <b>0 </b>points.","","128","null","0","105","",""
"","external-html","260","706336","0.0-4.0","partial","Male","70","United States of America","","C404147","BW","freqGain","Mozilla/5.0 (Windows NT 6.1; Win64; x64) AppleWebKit/537.36 (KHTML, like Gecko) Chrome/81.0.4044.138 Safari/537.36","1.22","","28238.624999999767","","","","","","","","./pages/testinstr-fl.html",""
"","html-button-response","261","708520","0.0-5.0-0.0","partial","Male","70","United States of America","","C404147","BW","freqGain","Mozilla/5.0 (Windows NT 6.1; Win64; x64) AppleWebKit/537.36 (KHTML, like Gecko) Chrome/81.0.4044.138 Safari/537.36","1.22","","2180","","<img src = 'img/A1-B0-L0-W0.jpg' width = '600'>","1","","","","","","1"
"","html-keyboard-response","262","709922","0.0-5.0-1.0","partial","Male","70","United States of America","","C404147","BW","freqGain","Mozilla/5.0 (Windows NT 6.1; Win64; x64) AppleWebKit/537.36 (KHTML, like Gecko) Chrome/81.0.4044.138 Safari/537.36","1.22","","null","","","","","null","0","105","","1"
"","html-button-response","263","711896","0.0-5.0-0.1","partial","Male","70","United States of America","","C404147","BW","freqGain","Mozilla/5.0 (Windows NT 6.1; Win64; x64) AppleWebKit/537.36 (KHTML, like Gecko) Chrome/81.0.4044.138 Safari/537.36","1.22","","1972","","<img src = 'img/A0-B0-L1-W0.jpg' width = '600'>","1","","","","","","2"
"","html-keyboard-response","264","713298","0.0-5.0-1.1","partial","Male","70","United States of America","","C404147","BW","freqGain","Mozilla/5.0 (Windows NT 6.1; Win64; x64) AppleWebKit/537.36 (KHTML, like Gecko) Chrome/81.0.4044.138 Safari/537.36","1.22","","null","","","","","null","0","105","","2"
"","html-button-response","265","714671","0.0-5.0-0.2","partial","Male","70","United States of America","","C404147","BW","freqGain","Mozilla/5.0 (Windows NT 6.1; Win64; x64) AppleWebKit/537.36 (KHTML, like Gecko) Chrome/81.0.4044.138 Safari/537.36","1.22","","1372","","<img src = 'img/A1-B1-L1-W1.jpg' width = '600'>","1","","","","","","3"
"","html-keyboard-response","266","716073","0.0-5.0-1.2","partial","Male","70","United States of America","","C404147","BW","freqGain","Mozilla/5.0 (Windows NT 6.1; Win64; x64) AppleWebKit/537.36 (KHTML, like Gecko) Chrome/81.0.4044.138 Safari/537.36","1.22","","null","","","","","null","0","105","","3"
"","html-button-response","267","717247","0.0-5.0-0.3","partial","Male","70","United States of America","","C404147","BW","freqGain","Mozilla/5.0 (Windows NT 6.1; Win64; x64) AppleWebKit/537.36 (KHTML, like Gecko) Chrome/81.0.4044.138 Safari/537.36","1.22","","1173","","<img src = 'img/A1-B0-L1-W0.jpg' width = '600'>","1","","","","","","4"
"","html-keyboard-response","268","718651","0.0-5.0-1.3","partial","Male","70","United States of America","","C404147","BW","freqGain","Mozilla/5.0 (Windows NT 6.1; Win64; x64) AppleWebKit/537.36 (KHTML, like Gecko) Chrome/81.0.4044.138 Safari/537.36","1.22","","null","","","","","null","0","105","","4"
"","html-button-response","269","721009","0.0-5.0-0.4","partial","Male","70","United States of America","","C404147","BW","freqGain","Mozilla/5.0 (Windows NT 6.1; Win64; x64) AppleWebKit/537.36 (KHTML, like Gecko) Chrome/81.0.4044.138 Safari/537.36","1.22","","2356","","<img src = 'img/A0-B1-L0-W1.jpg' width = '600'>","0","","","","","","5"
"","html-keyboard-response","270","722411","0.0-5.0-1.4","partial","Male","70","United States of America","","C404147","BW","freqGain","Mozilla/5.0 (Windows NT 6.1; Win64; x64) AppleWebKit/537.36 (KHTML, like Gecko) Chrome/81.0.4044.138 Safari/537.36","1.22","","null","","","","","null","3","108","","5"
"","html-button-response","271","723969","0.0-5.0-0.5","partial","Male","70","United States of America","","C404147","BW","freqGain","Mozilla/5.0 (Windows NT 6.1; Win64; x64) AppleWebKit/537.36 (KHTML, like Gecko) Chrome/81.0.4044.138 Safari/537.36","1.22","","1556","","<img src = 'img/A1-B1-L0-W1.jpg' width = '600'>","1","","","","","","6"
"","html-keyboard-response","272","725371","0.0-5.0-1.5","partial","Male","70","United States of America","","C404147","BW","freqGain","Mozilla/5.0 (Windows NT 6.1; Win64; x64) AppleWebKit/537.36 (KHTML, like Gecko) Chrome/81.0.4044.138 Safari/537.36","1.22","","null","","","","","null","0","108","","6"
"","html-button-response","273","727033","0.0-5.0-0.6","partial","Male","70","United States of America","","C404147","BW","freqGain","Mozilla/5.0 (Windows NT 6.1; Win64; x64) AppleWebKit/537.36 (KHTML, like Gecko) Chrome/81.0.4044.138 Safari/537.36","1.22","","1660","","<img src = 'img/A0-B1-L0-W0.jpg' width = '600'>","1","","","","","","7"
"","html-keyboard-response","274","728435","0.0-5.0-1.6","partial","Male","70","United States of America","","C404147","BW","freqGain","Mozilla/5.0 (Windows NT 6.1; Win64; x64) AppleWebKit/537.36 (KHTML, like Gecko) Chrome/81.0.4044.138 Safari/537.36","1.22","","null","","","","","null","0","108","","7"
"","html-button-response","275","733176","0.0-5.0-0.7","partial","Male","70","United States of America","","C404147","BW","freqGain","Mozilla/5.0 (Windows NT 6.1; Win64; x64) AppleWebKit/537.36 (KHTML, like Gecko) Chrome/81.0.4044.138 Safari/537.36","1.22","","4740","","<img src = 'img/A0-B0-L0-W0.jpg' width = '600'>","1","","","","","","8"
"","html-keyboard-response","276","734579","0.0-5.0-1.7","partial","Male","70","United States of America","","C404147","BW","freqGain","Mozilla/5.0 (Windows NT 6.1; Win64; x64) AppleWebKit/537.36 (KHTML, like Gecko) Chrome/81.0.4044.138 Safari/537.36","1.22","","null","","","","","null","0","108","","8"
"","html-button-response","277","736448","0.0-5.0-0.8","partial","Male","70","United States of America","","C404147","BW","freqGain","Mozilla/5.0 (Windows NT 6.1; Win64; x64) AppleWebKit/537.36 (KHTML, like Gecko) Chrome/81.0.4044.138 Safari/537.36","1.22","","1866","","<img src = 'img/A0-B1-L0-W1.jpg' width = '600'>","0","","","","","","9"
"","html-keyboard-response","278","737849","0.0-5.0-1.8","partial","Male","70","United States of America","","C404147","BW","freqGain","Mozilla/5.0 (Windows NT 6.1; Win64; x64) AppleWebKit/537.36 (KHTML, like Gecko) Chrome/81.0.4044.138 Safari/537.36","1.22","","null","","","","","null","3","111","","9"
"","html-button-response","279","740232","0.0-5.0-0.9","partial","Male","70","United States of America","","C404147","BW","freqGain","Mozilla/5.0 (Windows NT 6.1; Win64; x64) AppleWebKit/537.36 (KHTML, like Gecko) Chrome/81.0.4044.138 Safari/537.36","1.22","","2381","","<img src = 'img/A0-B1-L0-W1.jpg' width = '600'>","0","","","","","","10"
"","html-keyboard-response","280","741634","0.0-5.0-1.9","partial","Male","70","United States of America","","C404147","BW","freqGain","Mozilla/5.0 (Windows NT 6.1; Win64; x64) AppleWebKit/537.36 (KHTML, like Gecko) Chrome/81.0.4044.138 Safari/537.36","1.22","","null","","","","","null","3","114","","10"
"","html-button-response","281","744144","0.0-5.0-0.10","partial","Male","70","United States of America","","C404147","BW","freqGain","Mozilla/5.0 (Windows NT 6.1; Win64; x64) AppleWebKit/537.36 (KHTML, like Gecko) Chrome/81.0.4044.138 Safari/537.36","1.22","","2507","","<img src = 'img/A0-B0-L1-W1.jpg' width = '600'>","0","","","","","","11"
"","html-keyboard-response","282","745546","0.0-5.0-1.10","partial","Male","70","United States of America","","C404147","BW","freqGain","Mozilla/5.0 (Windows NT 6.1; Win64; x64) AppleWebKit/537.36 (KHTML, like Gecko) Chrome/81.0.4044.138 Safari/537.36","1.22","","null","","","","","null","-1","113","","11"
"","html-button-response","283","748976","0.0-5.0-0.11","partial","Male","70","United States of America","","C404147","BW","freqGain","Mozilla/5.0 (Windows NT 6.1; Win64; x64) AppleWebKit/537.36 (KHTML, like Gecko) Chrome/81.0.4044.138 Safari/537.36","1.22","","3427","","<img src = 'img/A0-B1-L0-W0.jpg' width = '600'>","1","","","","","","12"
