"success","trial_type","trial_index","time_elapsed","internal_node_id","feedback","gender","age","country","email","turkcode","relevantDim","condition","browserinfo","bonus","view_history","rt","responses","stimulus","button_pressed","i","key_press","earnedThis","earnedCumulative","url","k"
"true","fullscreen","0","5841","0.0-0.0","full","Male","30","United States of America","","C245479","LB","freqGain","Mozilla/5.0 (Windows NT 10.0; Win64; x64) AppleWebKit/537.36 (KHTML, like Gecko) Chrome/83.0.4103.61 Safari/537.36","1.21","","","","","","","","","","",""
"","instructions","1","37881","0.0-1.0-0.0","full","Male","30","United States of America","","C245479","LB","freqGain","Mozilla/5.0 (Windows NT 10.0; Win64; x64) AppleWebKit/537.36 (KHTML, like Gecko) Chrome/83.0.4103.61 Safari/537.36","1.21","[{""page_index"":0,""viewing_time"":1483},{""page_index"":1,""viewing_time"":10250},{""page_index"":2,""viewing_time"":20280}]","32015","","","","","","","","",""
"","survey-html-form","2","59249","0.0-1.0-1.0","full","Male","30","United States of America","","C245479","LB","freqGain","Mozilla/5.0 (Windows NT 10.0; Win64; x64) AppleWebKit/537.36 (KHTML, like Gecko) Chrome/83.0.4103.61 Safari/537.36","1.21","","21354.865000001155","{""legs"":""checked"",""body"":""checked"",""wings"":""checked"",""antennae"":""checked"",""change"":""no"",""telldangerous"":""feature"",""avoidinfo"":""noInfo""}","","","","","","","",""
"","html-button-response","3","61581","0.0-1.0-2.0-0.0","full","Male","30","United States of America","","C245479","LB","freqGain","Mozilla/5.0 (Windows NT 10.0; Win64; x64) AppleWebKit/537.36 (KHTML, like Gecko) Chrome/83.0.4103.61 Safari/537.36","1.21","","2327","","Oh no! One of your answers was incorrect. Let's try again.","0","","","","","",""
"","instructions","4","78389","0.0-1.1-0.1","full","Male","30","United States of America","","C245479","LB","freqGain","Mozilla/5.0 (Windows NT 10.0; Win64; x64) AppleWebKit/537.36 (KHTML, like Gecko) Chrome/83.0.4103.61 Safari/537.36","1.21","[{""page_index"":0,""viewing_time"":3066},{""page_index"":1,""viewing_time"":11656},{""page_index"":2,""viewing_time"":2081}]","16806","","","","","","","","",""
"","survey-html-form","5","95055","0.0-1.1-1.1","full","Male","30","United States of America","","C245479","LB","freqGain","Mozilla/5.0 (Windows NT 10.0; Win64; x64) AppleWebKit/537.36 (KHTML, like Gecko) Chrome/83.0.4103.61 Safari/537.36","1.21","","16658.695000005537","{""legs"":""checked"",""body"":""checked"",""wings"":""checked"",""antennae"":""checked"",""change"":""no"",""telldangerous"":""feature"",""avoidinfo"":""info""}","","","","","","","",""
"","html-button-response","6","96437","0.0-2.0","full","Male","30","United States of America","","C245479","LB","freqGain","Mozilla/5.0 (Windows NT 10.0; Win64; x64) AppleWebKit/537.36 (KHTML, like Gecko) Chrome/83.0.4103.61 Safari/537.36","1.21","","1378","","<p>Well done! This is now the last page of instructions.</p> <p>You're going to start experiment now.</p>","0","","","","","",""
"","html-button-response","7","99923","0.0-3.0-0.0","full","Male","30","United States of America","","C245479","LB","freqGain","Mozilla/5.0 (Windows NT 10.0; Win64; x64) AppleWebKit/537.36 (KHTML, like Gecko) Chrome/83.0.4103.61 Safari/537.36","1.21","","3479","","<img src = 'img/A1-B1-L1-W0.jpg' width = '600'>","0","1","","","","",""
"","html-keyboard-response","8","101929","0.0-3.0-1.0","full","Male","30","United States of America","","C245479","LB","freqGain","Mozilla/5.0 (Windows NT 10.0; Win64; x64) AppleWebKit/537.36 (KHTML, like Gecko) Chrome/83.0.4103.61 Safari/537.36","1.21","","null","","Ouch, you were stung! You lost <b>-3 </b>points.","","1","null","-3","47","",""
"","html-button-response","9","104144","0.0-3.0-0.1","full","Male","30","United States of America","","C245479","LB","freqGain","Mozilla/5.0 (Windows NT 10.0; Win64; x64) AppleWebKit/537.36 (KHTML, like Gecko) Chrome/83.0.4103.61 Safari/537.36","1.21","","2206","","<img src = 'img/A1-B1-L1-W1.jpg' width = '600'>","0","2","","","","",""
"","html-keyboard-response","10","106147","0.0-3.0-1.1","full","Male","30","United States of America","","C245479","LB","freqGain","Mozilla/5.0 (Windows NT 10.0; Win64; x64) AppleWebKit/537.36 (KHTML, like Gecko) Chrome/83.0.4103.61 Safari/537.36","1.21","","null","","Ouch, you were stung! You lost <b>-3 </b>points.","","2","null","-3","44","",""
"","html-button-response","11","107986","0.0-3.0-0.2","full","Male","30","United States of America","","C245479","LB","freqGain","Mozilla/5.0 (Windows NT 10.0; Win64; x64) AppleWebKit/537.36 (KHTML, like Gecko) Chrome/83.0.4103.61 Safari/537.36","1.21","","1834","","<img src = 'img/A1-B1-L0-W1.jpg' width = '600'>","1","3","","","","",""
"","html-keyboard-response","12","109990","0.0-3.0-1.2","full","Male","30","United States of America","","C245479","LB","freqGain","Mozilla/5.0 (Windows NT 10.0; Win64; x64) AppleWebKit/537.36 (KHTML, like Gecko) Chrome/83.0.4103.61 Safari/537.36","1.21","","null","","Oops, you avoided a friendly hive. You earned <b>0 </b>points.","","3","null","0","44","",""
"","html-button-response","13","111356","0.0-3.0-0.3","full","Male","30","United States of America","","C245479","LB","freqGain","Mozilla/5.0 (Windows NT 10.0; Win64; x64) AppleWebKit/537.36 (KHTML, like Gecko) Chrome/83.0.4103.61 Safari/537.36","1.21","","1361","","<img src = 'img/A0-B0-L1-W0.jpg' width = '600'>","1","4","","","","",""
"","html-keyboard-response","14","113359","0.0-3.0-1.3","full","Male","30","United States of America","","C245479","LB","freqGain","Mozilla/5.0 (Windows NT 10.0; Win64; x64) AppleWebKit/537.36 (KHTML, like Gecko) Chrome/83.0.4103.61 Safari/537.36","1.21","","null","","Oops, you avoided a friendly hive. You earned <b>0 </b>points.","","4","null","0","44","",""
"","html-button-response","15","115154","0.0-3.0-0.4","full","Male","30","United States of America","","C245479","LB","freqGain","Mozilla/5.0 (Windows NT 10.0; Win64; x64) AppleWebKit/537.36 (KHTML, like Gecko) Chrome/83.0.4103.61 Safari/537.36","1.21","","1791","","<img src = 'img/A0-B0-L0-W1.jpg' width = '600'>","0","5","","","","",""
"","html-keyboard-response","16","117156","0.0-3.0-1.4","full","Male","30","United States of America","","C245479","LB","freqGain","Mozilla/5.0 (Windows NT 10.0; Win64; x64) AppleWebKit/537.36 (KHTML, like Gecko) Chrome/83.0.4103.61 Safari/537.36","1.21","","null","","You successfully harvested honey! You earned <b>1 </b>point.","","5","null","1","45","",""
"","html-button-response","17","118534","0.0-3.0-0.5","full","Male","30","United States of America","","C245479","LB","freqGain","Mozilla/5.0 (Windows NT 10.0; Win64; x64) AppleWebKit/537.36 (KHTML, like Gecko) Chrome/83.0.4103.61 Safari/537.36","1.21","","1372","","<img src = 'img/A1-B0-L1-W0.jpg' width = '600'>","0","6","","","","",""
"","html-keyboard-response","18","120539","0.0-3.0-1.5","full","Male","30","United States of America","","C245479","LB","freqGain","Mozilla/5.0 (Windows NT 10.0; Win64; x64) AppleWebKit/537.36 (KHTML, like Gecko) Chrome/83.0.4103.61 Safari/537.36","1.21","","null","","You successfully harvested honey! You earned <b>1 </b>point.","","6","null","1","46","",""
"","html-button-response","19","122865","0.0-3.0-0.6","full","Male","30","United States of America","","C245479","LB","freqGain","Mozilla/5.0 (Windows NT 10.0; Win64; x64) AppleWebKit/537.36 (KHTML, like Gecko) Chrome/83.0.4103.61 Safari/537.36","1.21","","2318","","<img src = 'img/A0-B0-L1-W1.jpg' width = '600'>","1","7","","","","",""
"","html-keyboard-response","20","124868","0.0-3.0-1.6","full","Male","30","United States of America","","C245479","LB","freqGain","Mozilla/5.0 (Windows NT 10.0; Win64; x64) AppleWebKit/537.36 (KHTML, like Gecko) Chrome/83.0.4103.61 Safari/537.36","1.21","","null","","Oops, you avoided a friendly hive. You earned <b>0 </b>points.","","7","null","0","46","",""
"","html-button-response","21","125829","0.0-3.0-0.7","full","Male","30","United States of America","","C245479","LB","freqGain","Mozilla/5.0 (Windows NT 10.0; Win64; x64) AppleWebKit/537.36 (KHTML, like Gecko) Chrome/83.0.4103.61 Safari/537.36","1.21","","958","","<img src = 'img/A1-B0-L0-W1.jpg' width = '600'>","1","8","","","","",""
"","html-keyboard-response","22","127833","0.0-3.0-1.7","full","Male","30","United States of America","","C245479","LB","freqGain","Mozilla/5.0 (Windows NT 10.0; Win64; x64) AppleWebKit/537.36 (KHTML, like Gecko) Chrome/83.0.4103.61 Safari/537.36","1.21","","null","","Oops, you avoided a friendly hive. You earned <b>0 </b>points.","","8","null","0","46","",""
"","html-button-response","23","128801","0.0-3.0-0.8","full","Male","30","United States of America","","C245479","LB","freqGain","Mozilla/5.0 (Windows NT 10.0; Win64; x64) AppleWebKit/537.36 (KHTML, like Gecko) Chrome/83.0.4103.61 Safari/537.36","1.21","","962","","<img src = 'img/A0-B1-L0-W0.jpg' width = '600'>","1","9","","","","",""
"","html-keyboard-response","24","130805","0.0-3.0-1.8","full","Male","30","United States of America","","C245479","LB","freqGain","Mozilla/5.0 (Windows NT 10.0; Win64; x64) AppleWebKit/537.36 (KHTML, like Gecko) Chrome/83.0.4103.61 Safari/537.36","1.21","","null","","Oops, you avoided a friendly hive. You earned <b>0 </b>points.","","9","null","0","46","",""
"","html-button-response","25","131233","0.0-3.0-0.9","full","Male","30","United States of America","","C245479","LB","freqGain","Mozilla/5.0 (Windows NT 10.0; Win64; x64) AppleWebKit/537.36 (KHTML, like Gecko) Chrome/83.0.4103.61 Safari/537.36","1.21","","425","","<img src = 'img/A1-B0-L1-W1.jpg' width = '600'>","0","10","","","","",""
"","html-keyboard-response","26","133235","0.0-3.0-1.9","full","Male","30","United States of America","","C245479","LB","freqGain","Mozilla/5.0 (Windows NT 10.0; Win64; x64) AppleWebKit/537.36 (KHTML, like Gecko) Chrome/83.0.4103.61 Safari/537.36","1.21","","null","","You successfully harvested honey! You earned <b>1 </b>point.","","10","null","1","47","",""
"","html-button-response","27","133847","0.0-3.0-0.10","full","Male","30","United States of America","","C245479","LB","freqGain","Mozilla/5.0 (Windows NT 10.0; Win64; x64) AppleWebKit/537.36 (KHTML, like Gecko) Chrome/83.0.4103.61 Safari/537.36","1.21","","609","","<img src = 'img/A0-B1-L0-W1.jpg' width = '600'>","0","11","","","","",""
"","html-keyboard-response","28","135856","0.0-3.0-1.10","full","Male","30","United States of America","","C245479","LB","freqGain","Mozilla/5.0 (Windows NT 10.0; Win64; x64) AppleWebKit/537.36 (KHTML, like Gecko) Chrome/83.0.4103.61 Safari/537.36","1.21","","null","","You successfully harvested honey! You earned <b>1 </b>point.","","11","null","1","48","",""
"","html-button-response","29","137431","0.0-3.0-0.11","full","Male","30","United States of America","","C245479","LB","freqGain","Mozilla/5.0 (Windows NT 10.0; Win64; x64) AppleWebKit/537.36 (KHTML, like Gecko) Chrome/83.0.4103.61 Safari/537.36","1.21","","1564","","<img src = 'img/A1-B0-L0-W0.jpg' width = '600'>","1","12","","","","",""
"","html-keyboard-response","30","139433","0.0-3.0-1.11","full","Male","30","United States of America","","C245479","LB","freqGain","Mozilla/5.0 (Windows NT 10.0; Win64; x64) AppleWebKit/537.36 (KHTML, like Gecko) Chrome/83.0.4103.61 Safari/537.36","1.21","","null","","Oops, you avoided a friendly hive. You earned <b>0 </b>points.","","12","null","0","48","",""
"","html-button-response","31","140601","0.0-3.0-0.12","full","Male","30","United States of America","","C245479","LB","freqGain","Mozilla/5.0 (Windows NT 10.0; Win64; x64) AppleWebKit/537.36 (KHTML, like Gecko) Chrome/83.0.4103.61 Safari/537.36","1.21","","1164","","<img src = 'img/A0-B1-L1-W0.jpg' width = '600'>","1","13","","","","",""
"","html-keyboard-response","32","142607","0.0-3.0-1.12","full","Male","30","United States of America","","C245479","LB","freqGain","Mozilla/5.0 (Windows NT 10.0; Win64; x64) AppleWebKit/537.36 (KHTML, like Gecko) Chrome/83.0.4103.61 Safari/537.36","1.21","","null","","Whew, you avoided being stung! You earned <b>0 </b> points.","","13","null","0","48","",""
"","html-button-response","33","143879","0.0-3.0-0.13","full","Male","30","United States of America","","C245479","LB","freqGain","Mozilla/5.0 (Windows NT 10.0; Win64; x64) AppleWebKit/537.36 (KHTML, like Gecko) Chrome/83.0.4103.61 Safari/537.36","1.21","","1269","","<img src = 'img/A0-B0-L0-W0.jpg' width = '600'>","1","14","","","","",""
"","html-keyboard-response","34","145882","0.0-3.0-1.13","full","Male","30","United States of America","","C245479","LB","freqGain","Mozilla/5.0 (Windows NT 10.0; Win64; x64) AppleWebKit/537.36 (KHTML, like Gecko) Chrome/83.0.4103.61 Safari/537.36","1.21","","null","","Oops, you avoided a friendly hive. You earned <b>0 </b>points.","","14","null","0","48","",""
"","html-button-response","35","146621","0.0-3.0-0.14","full","Male","30","United States of America","","C245479","LB","freqGain","Mozilla/5.0 (Windows NT 10.0; Win64; x64) AppleWebKit/537.36 (KHTML, like Gecko) Chrome/83.0.4103.61 Safari/537.36","1.21","","734","","<img src = 'img/A0-B1-L1-W1.jpg' width = '600'>","0","15","","","","",""
"","html-keyboard-response","36","148624","0.0-3.0-1.14","full","Male","30","United States of America","","C245479","LB","freqGain","Mozilla/5.0 (Windows NT 10.0; Win64; x64) AppleWebKit/537.36 (KHTML, like Gecko) Chrome/83.0.4103.61 Safari/537.36","1.21","","null","","Ouch, you were stung! You lost <b>-3 </b>points.","","15","null","-3","45","",""
"","html-button-response","37","149527","0.0-3.0-0.15","full","Male","30","United States of America","","C245479","LB","freqGain","Mozilla/5.0 (Windows NT 10.0; Win64; x64) AppleWebKit/537.36 (KHTML, like Gecko) Chrome/83.0.4103.61 Safari/537.36","1.21","","901","","<img src = 'img/A1-B1-L0-W0.jpg' width = '600'>","1","16","","","","",""
"","html-keyboard-response","38","151532","0.0-3.0-1.15","full","Male","30","United States of America","","C245479","LB","freqGain","Mozilla/5.0 (Windows NT 10.0; Win64; x64) AppleWebKit/537.36 (KHTML, like Gecko) Chrome/83.0.4103.61 Safari/537.36","1.21","","null","","Oops, you avoided a friendly hive. You earned <b>0 </b>points.","","16","null","0","45","",""
"","html-button-response","39","153431","0.0-3.0-0.16","full","Male","30","United States of America","","C245479","LB","freqGain","Mozilla/5.0 (Windows NT 10.0; Win64; x64) AppleWebKit/537.36 (KHTML, like Gecko) Chrome/83.0.4103.61 Safari/537.36","1.21","","1891","","<img src = 'img/A1-B1-L0-W0.jpg' width = '600'>","0","17","","","","",""
"","html-keyboard-response","40","155433","0.0-3.0-1.16","full","Male","30","United States of America","","C245479","LB","freqGain","Mozilla/5.0 (Windows NT 10.0; Win64; x64) AppleWebKit/537.36 (KHTML, like Gecko) Chrome/83.0.4103.61 Safari/537.36","1.21","","null","","You successfully harvested honey! You earned <b>1 </b>point.","","17","null","1","46","",""
"","html-button-response","41","156037","0.0-3.0-0.17","full","Male","30","United States of America","","C245479","LB","freqGain","Mozilla/5.0 (Windows NT 10.0; Win64; x64) AppleWebKit/537.36 (KHTML, like Gecko) Chrome/83.0.4103.61 Safari/537.36","1.21","","602","","<img src = 'img/A0-B1-L0-W0.jpg' width = '600'>","0","18","","","","",""
"","html-keyboard-response","42","158049","0.0-3.0-1.17","full","Male","30","United States of America","","C245479","LB","freqGain","Mozilla/5.0 (Windows NT 10.0; Win64; x64) AppleWebKit/537.36 (KHTML, like Gecko) Chrome/83.0.4103.61 Safari/537.36","1.21","","null","","You successfully harvested honey! You earned <b>1 </b>point.","","18","null","1","47","",""
"","html-button-response","43","159316","0.0-3.0-0.18","full","Male","30","United States of America","","C245479","LB","freqGain","Mozilla/5.0 (Windows NT 10.0; Win64; x64) AppleWebKit/537.36 (KHTML, like Gecko) Chrome/83.0.4103.61 Safari/537.36","1.21","","1251","","<img src = 'img/A0-B0-L1-W1.jpg' width = '600'>","1","19","","","","",""
"","html-keyboard-response","44","161323","0.0-3.0-1.18","full","Male","30","United States of America","","C245479","LB","freqGain","Mozilla/5.0 (Windows NT 10.0; Win64; x64) AppleWebKit/537.36 (KHTML, like Gecko) Chrome/83.0.4103.61 Safari/537.36","1.21","","null","","Oops, you avoided a friendly hive. You earned <b>0 </b>points.","","19","null","0","47","",""
"","html-button-response","45","163608","0.0-3.0-0.19","full","Male","30","United States of America","","C245479","LB","freqGain","Mozilla/5.0 (Windows NT 10.0; Win64; x64) AppleWebKit/537.36 (KHTML, like Gecko) Chrome/83.0.4103.61 Safari/537.36","1.21","","2274","","<img src = 'img/A1-B1-L1-W0.jpg' width = '600'>","0","20","","","","",""
"","html-keyboard-response","46","165612","0.0-3.0-1.19","full","Male","30","United States of America","","C245479","LB","freqGain","Mozilla/5.0 (Windows NT 10.0; Win64; x64) AppleWebKit/537.36 (KHTML, like Gecko) Chrome/83.0.4103.61 Safari/537.36","1.21","","null","","Ouch, you were stung! You lost <b>-3 </b>points.","","20","null","-3","44","",""
"","html-button-response","47","166470","0.0-3.0-0.20","full","Male","30","United States of America","","C245479","LB","freqGain","Mozilla/5.0 (Windows NT 10.0; Win64; x64) AppleWebKit/537.36 (KHTML, like Gecko) Chrome/83.0.4103.61 Safari/537.36","1.21","","855","","<img src = 'img/A0-B0-L0-W0.jpg' width = '600'>","1","21","","","","",""
"","html-keyboard-response","48","168472","0.0-3.0-1.20","full","Male","30","United States of America","","C245479","LB","freqGain","Mozilla/5.0 (Windows NT 10.0; Win64; x64) AppleWebKit/537.36 (KHTML, like Gecko) Chrome/83.0.4103.61 Safari/537.36","1.21","","null","","Oops, you avoided a friendly hive. You earned <b>0 </b>points.","","21","null","0","44","",""
"","html-button-response","49","169189","0.0-3.0-0.21","full","Male","30","United States of America","","C245479","LB","freqGain","Mozilla/5.0 (Windows NT 10.0; Win64; x64) AppleWebKit/537.36 (KHTML, like Gecko) Chrome/83.0.4103.61 Safari/537.36","1.21","","711","","<img src = 'img/A0-B0-L1-W0.jpg' width = '600'>","0","22","","","","",""
"","html-keyboard-response","50","171193","0.0-3.0-1.21","full","Male","30","United States of America","","C245479","LB","freqGain","Mozilla/5.0 (Windows NT 10.0; Win64; x64) AppleWebKit/537.36 (KHTML, like Gecko) Chrome/83.0.4103.61 Safari/537.36","1.21","","null","","You successfully harvested honey! You earned <b>1 </b>point.","","22","null","1","45","",""
"","html-button-response","51","172058","0.0-3.0-0.22","full","Male","30","United States of America","","C245479","LB","freqGain","Mozilla/5.0 (Windows NT 10.0; Win64; x64) AppleWebKit/537.36 (KHTML, like Gecko) Chrome/83.0.4103.61 Safari/537.36","1.21","","858","","<img src = 'img/A1-B0-L1-W1.jpg' width = '600'>","0","23","","","","",""
"","html-keyboard-response","52","174061","0.0-3.0-1.22","full","Male","30","United States of America","","C245479","LB","freqGain","Mozilla/5.0 (Windows NT 10.0; Win64; x64) AppleWebKit/537.36 (KHTML, like Gecko) Chrome/83.0.4103.61 Safari/537.36","1.21","","null","","You successfully harvested honey! You earned <b>1 </b>point.","","23","null","1","46","",""
"","html-button-response","53","174630","0.0-3.0-0.23","full","Male","30","United States of America","","C245479","LB","freqGain","Mozilla/5.0 (Windows NT 10.0; Win64; x64) AppleWebKit/537.36 (KHTML, like Gecko) Chrome/83.0.4103.61 Safari/537.36","1.21","","563","","<img src = 'img/A0-B1-L1-W0.jpg' width = '600'>","1","24","","","","",""
"","html-keyboard-response","54","176635","0.0-3.0-1.23","full","Male","30","United States of America","","C245479","LB","freqGain","Mozilla/5.0 (Windows NT 10.0; Win64; x64) AppleWebKit/537.36 (KHTML, like Gecko) Chrome/83.0.4103.61 Safari/537.36","1.21","","null","","Whew, you avoided being stung! You earned <b>0 </b> points.","","24","null","0","46","",""
"","html-button-response","55","177376","0.0-3.0-0.24","full","Male","30","United States of America","","C245479","LB","freqGain","Mozilla/5.0 (Windows NT 10.0; Win64; x64) AppleWebKit/537.36 (KHTML, like Gecko) Chrome/83.0.4103.61 Safari/537.36","1.21","","738","","<img src = 'img/A1-B0-L1-W0.jpg' width = '600'>","0","25","","","","",""
"","html-keyboard-response","56","179380","0.0-3.0-1.24","full","Male","30","United States of America","","C245479","LB","freqGain","Mozilla/5.0 (Windows NT 10.0; Win64; x64) AppleWebKit/537.36 (KHTML, like Gecko) Chrome/83.0.4103.61 Safari/537.36","1.21","","null","","You successfully harvested honey! You earned <b>1 </b>point.","","25","null","1","47","",""
"","html-button-response","57","180236","0.0-3.0-0.25","full","Male","30","United States of America","","C245479","LB","freqGain","Mozilla/5.0 (Windows NT 10.0; Win64; x64) AppleWebKit/537.36 (KHTML, like Gecko) Chrome/83.0.4103.61 Safari/537.36","1.21","","847","","<img src = 'img/A1-B1-L1-W1.jpg' width = '600'>","1","26","","","","",""
"","html-keyboard-response","58","182238","0.0-3.0-1.25","full","Male","30","United States of America","","C245479","LB","freqGain","Mozilla/5.0 (Windows NT 10.0; Win64; x64) AppleWebKit/537.36 (KHTML, like Gecko) Chrome/83.0.4103.61 Safari/537.36","1.21","","null","","Whew, you avoided being stung! You earned <b>0 </b> points.","","26","null","0","47","",""
"","html-button-response","59","182614","0.0-3.0-0.26","full","Male","30","United States of America","","C245479","LB","freqGain","Mozilla/5.0 (Windows NT 10.0; Win64; x64) AppleWebKit/537.36 (KHTML, like Gecko) Chrome/83.0.4103.61 Safari/537.36","1.21","","373","","<img src = 'img/A0-B1-L0-W1.jpg' width = '600'>","0","27","","","","",""
"","html-keyboard-response","60","184617","0.0-3.0-1.26","full","Male","30","United States of America","","C245479","LB","freqGain","Mozilla/5.0 (Windows NT 10.0; Win64; x64) AppleWebKit/537.36 (KHTML, like Gecko) Chrome/83.0.4103.61 Safari/537.36","1.21","","null","","You successfully harvested honey! You earned <b>1 </b>point.","","27","null","1","48","",""
"","html-button-response","61","185229","0.0-3.0-0.27","full","Male","30","United States of America","","C245479","LB","freqGain","Mozilla/5.0 (Windows NT 10.0; Win64; x64) AppleWebKit/537.36 (KHTML, like Gecko) Chrome/83.0.4103.61 Safari/537.36","1.21","","607","","<img src = 'img/A1-B0-L0-W0.jpg' width = '600'>","1","28","","","","",""
"","html-keyboard-response","62","187233","0.0-3.0-1.27","full","Male","30","United States of America","","C245479","LB","freqGain","Mozilla/5.0 (Windows NT 10.0; Win64; x64) AppleWebKit/537.36 (KHTML, like Gecko) Chrome/83.0.4103.61 Safari/537.36","1.21","","null","","Oops, you avoided a friendly hive. You earned <b>0 </b>points.","","28","null","0","48","",""
"","html-button-response","63","188032","0.0-3.0-0.28","full","Male","30","United States of America","","C245479","LB","freqGain","Mozilla/5.0 (Windows NT 10.0; Win64; x64) AppleWebKit/537.36 (KHTML, like Gecko) Chrome/83.0.4103.61 Safari/537.36","1.21","","797","","<img src = 'img/A0-B1-L1-W1.jpg' width = '600'>","0","29","","","","",""
"","html-keyboard-response","64","190035","0.0-3.0-1.28","full","Male","30","United States of America","","C245479","LB","freqGain","Mozilla/5.0 (Windows NT 10.0; Win64; x64) AppleWebKit/537.36 (KHTML, like Gecko) Chrome/83.0.4103.61 Safari/537.36","1.21","","null","","Ouch, you were stung! You lost <b>-3 </b>points.","","29","null","-3","45","",""
"","html-button-response","65","190615","0.0-3.0-0.29","full","Male","30","United States of America","","C245479","LB","freqGain","Mozilla/5.0 (Windows NT 10.0; Win64; x64) AppleWebKit/537.36 (KHTML, like Gecko) Chrome/83.0.4103.61 Safari/537.36","1.21","","575","","<img src = 'img/A1-B1-L0-W1.jpg' width = '600'>","1","30","","","","",""
"","html-keyboard-response","66","192620","0.0-3.0-1.29","full","Male","30","United States of America","","C245479","LB","freqGain","Mozilla/5.0 (Windows NT 10.0; Win64; x64) AppleWebKit/537.36 (KHTML, like Gecko) Chrome/83.0.4103.61 Safari/537.36","1.21","","null","","Oops, you avoided a friendly hive. You earned <b>0 </b>points.","","30","null","0","45","",""
"","html-button-response","67","193431","0.0-3.0-0.30","full","Male","30","United States of America","","C245479","LB","freqGain","Mozilla/5.0 (Windows NT 10.0; Win64; x64) AppleWebKit/537.36 (KHTML, like Gecko) Chrome/83.0.4103.61 Safari/537.36","1.21","","806","","<img src = 'img/A0-B0-L0-W1.jpg' width = '600'>","0","31","","","","",""
"","html-keyboard-response","68","195435","0.0-3.0-1.30","full","Male","30","United States of America","","C245479","LB","freqGain","Mozilla/5.0 (Windows NT 10.0; Win64; x64) AppleWebKit/537.36 (KHTML, like Gecko) Chrome/83.0.4103.61 Safari/537.36","1.21","","null","","You successfully harvested honey! You earned <b>1 </b>point.","","31","null","1","46","",""
"","html-button-response","69","196479","0.0-3.0-0.31","full","Male","30","United States of America","","C245479","LB","freqGain","Mozilla/5.0 (Windows NT 10.0; Win64; x64) AppleWebKit/537.36 (KHTML, like Gecko) Chrome/83.0.4103.61 Safari/537.36","1.21","","1035","","<img src = 'img/A1-B0-L0-W1.jpg' width = '600'>","0","32","","","","",""
"","html-keyboard-response","70","198483","0.0-3.0-1.31","full","Male","30","United States of America","","C245479","LB","freqGain","Mozilla/5.0 (Windows NT 10.0; Win64; x64) AppleWebKit/537.36 (KHTML, like Gecko) Chrome/83.0.4103.61 Safari/537.36","1.21","","null","","You successfully harvested honey! You earned <b>1 </b>point.","","32","null","1","47","",""
"","html-button-response","71","199648","0.0-3.0-0.32","full","Male","30","United States of America","","C245479","LB","freqGain","Mozilla/5.0 (Windows NT 10.0; Win64; x64) AppleWebKit/537.36 (KHTML, like Gecko) Chrome/83.0.4103.61 Safari/537.36","1.21","","1157","","<img src = 'img/A1-B1-L0-W1.jpg' width = '600'>","1","33","","","","",""
"","html-keyboard-response","72","201651","0.0-3.0-1.32","full","Male","30","United States of America","","C245479","LB","freqGain","Mozilla/5.0 (Windows NT 10.0; Win64; x64) AppleWebKit/537.36 (KHTML, like Gecko) Chrome/83.0.4103.61 Safari/537.36","1.21","","null","","Oops, you avoided a friendly hive. You earned <b>0 </b>points.","","33","null","0","47","",""
"","html-button-response","73","202378","0.0-3.0-0.33","full","Male","30","United States of America","","C245479","LB","freqGain","Mozilla/5.0 (Windows NT 10.0; Win64; x64) AppleWebKit/537.36 (KHTML, like Gecko) Chrome/83.0.4103.61 Safari/537.36","1.21","","723","","<img src = 'img/A1-B1-L0-W0.jpg' width = '600'>","0","34","","","","",""
"","html-keyboard-response","74","204387","0.0-3.0-1.33","full","Male","30","United States of America","","C245479","LB","freqGain","Mozilla/5.0 (Windows NT 10.0; Win64; x64) AppleWebKit/537.36 (KHTML, like Gecko) Chrome/83.0.4103.61 Safari/537.36","1.21","","null","","You successfully harvested honey! You earned <b>1 </b>point.","","34","null","1","48","",""
"","html-button-response","75","206047","0.0-3.0-0.34","full","Male","30","United States of America","","C245479","LB","freqGain","Mozilla/5.0 (Windows NT 10.0; Win64; x64) AppleWebKit/537.36 (KHTML, like Gecko) Chrome/83.0.4103.61 Safari/537.36","1.21","","1634","","<img src = 'img/A0-B0-L0-W0.jpg' width = '600'>","1","35","","","","",""
"","html-keyboard-response","76","208050","0.0-3.0-1.34","full","Male","30","United States of America","","C245479","LB","freqGain","Mozilla/5.0 (Windows NT 10.0; Win64; x64) AppleWebKit/537.36 (KHTML, like Gecko) Chrome/83.0.4103.61 Safari/537.36","1.21","","null","","Oops, you avoided a friendly hive. You earned <b>0 </b>points.","","35","null","0","48","",""
"","html-button-response","77","208614","0.0-3.0-0.35","full","Male","30","United States of America","","C245479","LB","freqGain","Mozilla/5.0 (Windows NT 10.0; Win64; x64) AppleWebKit/537.36 (KHTML, like Gecko) Chrome/83.0.4103.61 Safari/537.36","1.21","","561","","<img src = 'img/A0-B1-L0-W1.jpg' width = '600'>","1","36","","","","",""
"","html-keyboard-response","78","210617","0.0-3.0-1.35","full","Male","30","United States of America","","C245479","LB","freqGain","Mozilla/5.0 (Windows NT 10.0; Win64; x64) AppleWebKit/537.36 (KHTML, like Gecko) Chrome/83.0.4103.61 Safari/537.36","1.21","","null","","Oops, you avoided a friendly hive. You earned <b>0 </b>points.","","36","null","0","48","",""
"","html-button-response","79","212004","0.0-3.0-0.36","full","Male","30","United States of America","","C245479","LB","freqGain","Mozilla/5.0 (Windows NT 10.0; Win64; x64) AppleWebKit/537.36 (KHTML, like Gecko) Chrome/83.0.4103.61 Safari/537.36","1.21","","1377","","<img src = 'img/A1-B0-L1-W1.jpg' width = '600'>","1","37","","","","",""
"","html-keyboard-response","80","214007","0.0-3.0-1.36","full","Male","30","United States of America","","C245479","LB","freqGain","Mozilla/5.0 (Windows NT 10.0; Win64; x64) AppleWebKit/537.36 (KHTML, like Gecko) Chrome/83.0.4103.61 Safari/537.36","1.21","","null","","Oops, you avoided a friendly hive. You earned <b>0 </b>points.","","37","null","0","48","",""
"","html-button-response","81","214807","0.0-3.0-0.37","full","Male","30","United States of America","","C245479","LB","freqGain","Mozilla/5.0 (Windows NT 10.0; Win64; x64) AppleWebKit/537.36 (KHTML, like Gecko) Chrome/83.0.4103.61 Safari/537.36","1.21","","792","","<img src = 'img/A1-B1-L1-W0.jpg' width = '600'>","1","38","","","","",""
"","html-keyboard-response","82","216812","0.0-3.0-1.37","full","Male","30","United States of America","","C245479","LB","freqGain","Mozilla/5.0 (Windows NT 10.0; Win64; x64) AppleWebKit/537.36 (KHTML, like Gecko) Chrome/83.0.4103.61 Safari/537.36","1.21","","null","","Whew, you avoided being stung! You earned <b>0 </b> points.","","38","null","0","48","",""
"","html-button-response","83","217480","0.0-3.0-0.38","full","Male","30","United States of America","","C245479","LB","freqGain","Mozilla/5.0 (Windows NT 10.0; Win64; x64) AppleWebKit/537.36 (KHTML, like Gecko) Chrome/83.0.4103.61 Safari/537.36","1.21","","665","","<img src = 'img/A1-B0-L0-W1.jpg' width = '600'>","0","39","","","","",""
"","html-keyboard-response","84","219483","0.0-3.0-1.38","full","Male","30","United States of America","","C245479","LB","freqGain","Mozilla/5.0 (Windows NT 10.0; Win64; x64) AppleWebKit/537.36 (KHTML, like Gecko) Chrome/83.0.4103.61 Safari/537.36","1.21","","null","","You successfully harvested honey! You earned <b>1 </b>point.","","39","null","1","49","",""
"","html-button-response","85","220639","0.0-3.0-0.39","full","Male","30","United States of America","","C245479","LB","freqGain","Mozilla/5.0 (Windows NT 10.0; Win64; x64) AppleWebKit/537.36 (KHTML, like Gecko) Chrome/83.0.4103.61 Safari/537.36","1.21","","1151","","<img src = 'img/A0-B1-L1-W1.jpg' width = '600'>","1","40","","","","",""
"","html-keyboard-response","86","222644","0.0-3.0-1.39","full","Male","30","United States of America","","C245479","LB","freqGain","Mozilla/5.0 (Windows NT 10.0; Win64; x64) AppleWebKit/537.36 (KHTML, like Gecko) Chrome/83.0.4103.61 Safari/537.36","1.21","","null","","Whew, you avoided being stung! You earned <b>0 </b> points.","","40","null","0","49","",""
"","html-button-response","87","223589","0.0-3.0-0.40","full","Male","30","United States of America","","C245479","LB","freqGain","Mozilla/5.0 (Windows NT 10.0; Win64; x64) AppleWebKit/537.36 (KHTML, like Gecko) Chrome/83.0.4103.61 Safari/537.36","1.21","","937","","<img src = 'img/A0-B1-L0-W0.jpg' width = '600'>","0","41","","","","",""
"","html-keyboard-response","88","225595","0.0-3.0-1.40","full","Male","30","United States of America","","C245479","LB","freqGain","Mozilla/5.0 (Windows NT 10.0; Win64; x64) AppleWebKit/537.36 (KHTML, like Gecko) Chrome/83.0.4103.61 Safari/537.36","1.21","","null","","You successfully harvested honey! You earned <b>1 </b>point.","","41","null","1","50","",""
"","html-button-response","89","227138","0.0-3.0-0.41","full","Male","30","United States of America","","C245479","LB","freqGain","Mozilla/5.0 (Windows NT 10.0; Win64; x64) AppleWebKit/537.36 (KHTML, like Gecko) Chrome/83.0.4103.61 Safari/537.36","1.21","","1531","","<img src = 'img/A0-B1-L1-W0.jpg' width = '600'>","1","42","","","","",""
"","html-keyboard-response","90","229141","0.0-3.0-1.41","full","Male","30","United States of America","","C245479","LB","freqGain","Mozilla/5.0 (Windows NT 10.0; Win64; x64) AppleWebKit/537.36 (KHTML, like Gecko) Chrome/83.0.4103.61 Safari/537.36","1.21","","null","","Whew, you avoided being stung! You earned <b>0 </b> points.","","42","null","0","50","",""
"","html-button-response","91","229540","0.0-3.0-0.42","full","Male","30","United States of America","","C245479","LB","freqGain","Mozilla/5.0 (Windows NT 10.0; Win64; x64) AppleWebKit/537.36 (KHTML, like Gecko) Chrome/83.0.4103.61 Safari/537.36","1.21","","395","","<img src = 'img/A0-B0-L1-W1.jpg' width = '600'>","0","43","","","","",""
"","html-keyboard-response","92","231545","0.0-3.0-1.42","full","Male","30","United States of America","","C245479","LB","freqGain","Mozilla/5.0 (Windows NT 10.0; Win64; x64) AppleWebKit/537.36 (KHTML, like Gecko) Chrome/83.0.4103.61 Safari/537.36","1.21","","null","","You successfully harvested honey! You earned <b>1 </b>point.","","43","null","1","51","",""
"","html-button-response","93","232315","0.0-3.0-0.43","full","Male","30","United States of America","","C245479","LB","freqGain","Mozilla/5.0 (Windows NT 10.0; Win64; x64) AppleWebKit/537.36 (KHTML, like Gecko) Chrome/83.0.4103.61 Safari/537.36","1.21","","767","","<img src = 'img/A0-B0-L0-W1.jpg' width = '600'>","0","44","","","","",""
"","html-keyboard-response","94","234321","0.0-3.0-1.43","full","Male","30","United States of America","","C245479","LB","freqGain","Mozilla/5.0 (Windows NT 10.0; Win64; x64) AppleWebKit/537.36 (KHTML, like Gecko) Chrome/83.0.4103.61 Safari/537.36","1.21","","null","","You successfully harvested honey! You earned <b>1 </b>point.","","44","null","1","52","",""
"","html-button-response","95","235665","0.0-3.0-0.44","full","Male","30","United States of America","","C245479","LB","freqGain","Mozilla/5.0 (Windows NT 10.0; Win64; x64) AppleWebKit/537.36 (KHTML, like Gecko) Chrome/83.0.4103.61 Safari/537.36","1.21","","1339","","<img src = 'img/A0-B0-L1-W0.jpg' width = '600'>","1","45","","","","",""
"","html-keyboard-response","96","237668","0.0-3.0-1.44","full","Male","30","United States of America","","C245479","LB","freqGain","Mozilla/5.0 (Windows NT 10.0; Win64; x64) AppleWebKit/537.36 (KHTML, like Gecko) Chrome/83.0.4103.61 Safari/537.36","1.21","","null","","Oops, you avoided a friendly hive. You earned <b>0 </b>points.","","45","null","0","52","",""
"","html-button-response","97","238424","0.0-3.0-0.45","full","Male","30","United States of America","","C245479","LB","freqGain","Mozilla/5.0 (Windows NT 10.0; Win64; x64) AppleWebKit/537.36 (KHTML, like Gecko) Chrome/83.0.4103.61 Safari/537.36","1.21","","753","","<img src = 'img/A1-B0-L0-W0.jpg' width = '600'>","1","46","","","","",""
"","html-keyboard-response","98","240427","0.0-3.0-1.45","full","Male","30","United States of America","","C245479","LB","freqGain","Mozilla/5.0 (Windows NT 10.0; Win64; x64) AppleWebKit/537.36 (KHTML, like Gecko) Chrome/83.0.4103.61 Safari/537.36","1.21","","null","","Oops, you avoided a friendly hive. You earned <b>0 </b>points.","","46","null","0","52","",""
"","html-button-response","99","241429","0.0-3.0-0.46","full","Male","30","United States of America","","C245479","LB","freqGain","Mozilla/5.0 (Windows NT 10.0; Win64; x64) AppleWebKit/537.36 (KHTML, like Gecko) Chrome/83.0.4103.61 Safari/537.36","1.21","","999","","<img src = 'img/A1-B0-L1-W0.jpg' width = '600'>","1","47","","","","",""
"","html-keyboard-response","100","243432","0.0-3.0-1.46","full","Male","30","United States of America","","C245479","LB","freqGain","Mozilla/5.0 (Windows NT 10.0; Win64; x64) AppleWebKit/537.36 (KHTML, like Gecko) Chrome/83.0.4103.61 Safari/537.36","1.21","","null","","Oops, you avoided a friendly hive. You earned <b>0 </b>points.","","47","null","0","52","",""
"","html-button-response","101","244732","0.0-3.0-0.47","full","Male","30","United States of America","","C245479","LB","freqGain","Mozilla/5.0 (Windows NT 10.0; Win64; x64) AppleWebKit/537.36 (KHTML, like Gecko) Chrome/83.0.4103.61 Safari/537.36","1.21","","1293","","<img src = 'img/A1-B1-L1-W1.jpg' width = '600'>","1","48","","","","",""
"","html-keyboard-response","102","246736","0.0-3.0-1.47","full","Male","30","United States of America","","C245479","LB","freqGain","Mozilla/5.0 (Windows NT 10.0; Win64; x64) AppleWebKit/537.36 (KHTML, like Gecko) Chrome/83.0.4103.61 Safari/537.36","1.21","","null","","Whew, you avoided being stung! You earned <b>0 </b> points.","","48","null","0","52","",""
"","html-button-response","103","248066","0.0-3.0-0.48","full","Male","30","United States of America","","C245479","LB","freqGain","Mozilla/5.0 (Windows NT 10.0; Win64; x64) AppleWebKit/537.36 (KHTML, like Gecko) Chrome/83.0.4103.61 Safari/537.36","1.21","","1327","","<img src = 'img/A1-B1-L1-W0.jpg' width = '600'>","1","49","","","","",""
"","html-keyboard-response","104","250074","0.0-3.0-1.48","full","Male","30","United States of America","","C245479","LB","freqGain","Mozilla/5.0 (Windows NT 10.0; Win64; x64) AppleWebKit/537.36 (KHTML, like Gecko) Chrome/83.0.4103.61 Safari/537.36","1.21","","null","","Whew, you avoided being stung! You earned <b>0 </b> points.","","49","null","0","52","",""
"","html-button-response","105","250824","0.0-3.0-0.49","full","Male","30","United States of America","","C245479","LB","freqGain","Mozilla/5.0 (Windows NT 10.0; Win64; x64) AppleWebKit/537.36 (KHTML, like Gecko) Chrome/83.0.4103.61 Safari/537.36","1.21","","742","","<img src = 'img/A0-B0-L1-W1.jpg' width = '600'>","0","50","","","","",""
"","html-keyboard-response","106","252826","0.0-3.0-1.49","full","Male","30","United States of America","","C245479","LB","freqGain","Mozilla/5.0 (Windows NT 10.0; Win64; x64) AppleWebKit/537.36 (KHTML, like Gecko) Chrome/83.0.4103.61 Safari/537.36","1.21","","null","","You successfully harvested honey! You earned <b>1 </b>point.","","50","null","1","53","",""
"","html-button-response","107","253267","0.0-3.0-0.50","full","Male","30","United States of America","","C245479","LB","freqGain","Mozilla/5.0 (Windows NT 10.0; Win64; x64) AppleWebKit/537.36 (KHTML, like Gecko) Chrome/83.0.4103.61 Safari/537.36","1.21","","435","","<img src = 'img/A0-B1-L1-W0.jpg' width = '600'>","0","51","","","","",""
"","html-keyboard-response","108","255274","0.0-3.0-1.50","full","Male","30","United States of America","","C245479","LB","freqGain","Mozilla/5.0 (Windows NT 10.0; Win64; x64) AppleWebKit/537.36 (KHTML, like Gecko) Chrome/83.0.4103.61 Safari/537.36","1.21","","null","","Ouch, you were stung! You lost <b>-3 </b>points.","","51","null","-3","50","",""
"","html-button-response","109","255807","0.0-3.0-0.51","full","Male","30","United States of America","","C245479","LB","freqGain","Mozilla/5.0 (Windows NT 10.0; Win64; x64) AppleWebKit/537.36 (KHTML, like Gecko) Chrome/83.0.4103.61 Safari/537.36","1.21","","530","","<img src = 'img/A1-B1-L0-W1.jpg' width = '600'>","1","52","","","","",""
"","html-keyboard-response","110","257809","0.0-3.0-1.51","full","Male","30","United States of America","","C245479","LB","freqGain","Mozilla/5.0 (Windows NT 10.0; Win64; x64) AppleWebKit/537.36 (KHTML, like Gecko) Chrome/83.0.4103.61 Safari/537.36","1.21","","null","","Oops, you avoided a friendly hive. You earned <b>0 </b>points.","","52","null","0","50","",""
"","html-button-response","111","258901","0.0-3.0-0.52","full","Male","30","United States of America","","C245479","LB","freqGain","Mozilla/5.0 (Windows NT 10.0; Win64; x64) AppleWebKit/537.36 (KHTML, like Gecko) Chrome/83.0.4103.61 Safari/537.36","1.21","","1088","","<img src = 'img/A0-B0-L0-W0.jpg' width = '600'>","0","53","","","","",""
"","html-keyboard-response","112","260904","0.0-3.0-1.52","full","Male","30","United States of America","","C245479","LB","freqGain","Mozilla/5.0 (Windows NT 10.0; Win64; x64) AppleWebKit/537.36 (KHTML, like Gecko) Chrome/83.0.4103.61 Safari/537.36","1.21","","null","","You successfully harvested honey! You earned <b>1 </b>point.","","53","null","1","51","",""
"","html-button-response","113","262388","0.0-3.0-0.53","full","Male","30","United States of America","","C245479","LB","freqGain","Mozilla/5.0 (Windows NT 10.0; Win64; x64) AppleWebKit/537.36 (KHTML, like Gecko) Chrome/83.0.4103.61 Safari/537.36","1.21","","1478","","<img src = 'img/A1-B1-L0-W0.jpg' width = '600'>","0","54","","","","",""
"","html-keyboard-response","114","264391","0.0-3.0-1.53","full","Male","30","United States of America","","C245479","LB","freqGain","Mozilla/5.0 (Windows NT 10.0; Win64; x64) AppleWebKit/537.36 (KHTML, like Gecko) Chrome/83.0.4103.61 Safari/537.36","1.21","","null","","You successfully harvested honey! You earned <b>1 </b>point.","","54","null","1","52","",""
"","html-button-response","115","266390","0.0-3.0-0.54","full","Male","30","United States of America","","C245479","LB","freqGain","Mozilla/5.0 (Windows NT 10.0; Win64; x64) AppleWebKit/537.36 (KHTML, like Gecko) Chrome/83.0.4103.61 Safari/537.36","1.21","","1994","","<img src = 'img/A1-B0-L0-W1.jpg' width = '600'>","0","55","","","","",""
"","html-keyboard-response","116","268395","0.0-3.0-1.54","full","Male","30","United States of America","","C245479","LB","freqGain","Mozilla/5.0 (Windows NT 10.0; Win64; x64) AppleWebKit/537.36 (KHTML, like Gecko) Chrome/83.0.4103.61 Safari/537.36","1.21","","null","","You successfully harvested honey! You earned <b>1 </b>point.","","55","null","1","53","",""
"","html-button-response","117","269520","0.0-3.0-0.55","full","Male","30","United States of America","","C245479","LB","freqGain","Mozilla/5.0 (Windows NT 10.0; Win64; x64) AppleWebKit/537.36 (KHTML, like Gecko) Chrome/83.0.4103.61 Safari/537.36","1.21","","1115","","<img src = 'img/A0-B0-L0-W1.jpg' width = '600'>","0","56","","","","",""
"","html-keyboard-response","118","271524","0.0-3.0-1.55","full","Male","30","United States of America","","C245479","LB","freqGain","Mozilla/5.0 (Windows NT 10.0; Win64; x64) AppleWebKit/537.36 (KHTML, like Gecko) Chrome/83.0.4103.61 Safari/537.36","1.21","","null","","You successfully harvested honey! You earned <b>1 </b>point.","","56","null","1","54","",""
"","html-button-response","119","272484","0.0-3.0-0.56","full","Male","30","United States of America","","C245479","LB","freqGain","Mozilla/5.0 (Windows NT 10.0; Win64; x64) AppleWebKit/537.36 (KHTML, like Gecko) Chrome/83.0.4103.61 Safari/537.36","1.21","","957","","<img src = 'img/A1-B1-L1-W1.jpg' width = '600'>","1","57","","","","",""
"","html-keyboard-response","120","274488","0.0-3.0-1.56","full","Male","30","United States of America","","C245479","LB","freqGain","Mozilla/5.0 (Windows NT 10.0; Win64; x64) AppleWebKit/537.36 (KHTML, like Gecko) Chrome/83.0.4103.61 Safari/537.36","1.21","","null","","Whew, you avoided being stung! You earned <b>0 </b> points.","","57","null","0","54","",""
"","html-button-response","121","275474","0.0-3.0-0.57","full","Male","30","United States of America","","C245479","LB","freqGain","Mozilla/5.0 (Windows NT 10.0; Win64; x64) AppleWebKit/537.36 (KHTML, like Gecko) Chrome/83.0.4103.61 Safari/537.36","1.21","","981","","<img src = 'img/A0-B1-L0-W1.jpg' width = '600'>","0","58","","","","",""
"","html-keyboard-response","122","277476","0.0-3.0-1.57","full","Male","30","United States of America","","C245479","LB","freqGain","Mozilla/5.0 (Windows NT 10.0; Win64; x64) AppleWebKit/537.36 (KHTML, like Gecko) Chrome/83.0.4103.61 Safari/537.36","1.21","","null","","You successfully harvested honey! You earned <b>1 </b>point.","","58","null","1","55","",""
"","html-button-response","123","278566","0.0-3.0-0.58","full","Male","30","United States of America","","C245479","LB","freqGain","Mozilla/5.0 (Windows NT 10.0; Win64; x64) AppleWebKit/537.36 (KHTML, like Gecko) Chrome/83.0.4103.61 Safari/537.36","1.21","","1084","","<img src = 'img/A1-B0-L0-W0.jpg' width = '600'>","1","59","","","","",""
"","html-keyboard-response","124","280569","0.0-3.0-1.58","full","Male","30","United States of America","","C245479","LB","freqGain","Mozilla/5.0 (Windows NT 10.0; Win64; x64) AppleWebKit/537.36 (KHTML, like Gecko) Chrome/83.0.4103.61 Safari/537.36","1.21","","null","","Oops, you avoided a friendly hive. You earned <b>0 </b>points.","","59","null","0","55","",""
"","html-button-response","125","281660","0.0-3.0-0.59","full","Male","30","United States of America","","C245479","LB","freqGain","Mozilla/5.0 (Windows NT 10.0; Win64; x64) AppleWebKit/537.36 (KHTML, like Gecko) Chrome/83.0.4103.61 Safari/537.36","1.21","","1087","","<img src = 'img/A0-B1-L0-W0.jpg' width = '600'>","0","60","","","","",""
"","html-keyboard-response","126","283665","0.0-3.0-1.59","full","Male","30","United States of America","","C245479","LB","freqGain","Mozilla/5.0 (Windows NT 10.0; Win64; x64) AppleWebKit/537.36 (KHTML, like Gecko) Chrome/83.0.4103.61 Safari/537.36","1.21","","null","","You successfully harvested honey! You earned <b>1 </b>point.","","60","null","1","56","",""
"","html-button-response","127","285259","0.0-3.0-0.60","full","Male","30","United States of America","","C245479","LB","freqGain","Mozilla/5.0 (Windows NT 10.0; Win64; x64) AppleWebKit/537.36 (KHTML, like Gecko) Chrome/83.0.4103.61 Safari/537.36","1.21","","1587","","<img src = 'img/A1-B0-L1-W1.jpg' width = '600'>","1","61","","","","",""
"","html-keyboard-response","128","287268","0.0-3.0-1.60","full","Male","30","United States of America","","C245479","LB","freqGain","Mozilla/5.0 (Windows NT 10.0; Win64; x64) AppleWebKit/537.36 (KHTML, like Gecko) Chrome/83.0.4103.61 Safari/537.36","1.21","","null","","Oops, you avoided a friendly hive. You earned <b>0 </b>points.","","61","null","0","56","",""
"","html-button-response","129","288769","0.0-3.0-0.61","full","Male","30","United States of America","","C245479","LB","freqGain","Mozilla/5.0 (Windows NT 10.0; Win64; x64) AppleWebKit/537.36 (KHTML, like Gecko) Chrome/83.0.4103.61 Safari/537.36","1.21","","1497","","<img src = 'img/A0-B1-L1-W1.jpg' width = '600'>","1","62","","","","",""
"","html-keyboard-response","130","290772","0.0-3.0-1.61","full","Male","30","United States of America","","C245479","LB","freqGain","Mozilla/5.0 (Windows NT 10.0; Win64; x64) AppleWebKit/537.36 (KHTML, like Gecko) Chrome/83.0.4103.61 Safari/537.36","1.21","","null","","Whew, you avoided being stung! You earned <b>0 </b> points.","","62","null","0","56","",""
"","html-button-response","131","291860","0.0-3.0-0.62","full","Male","30","United States of America","","C245479","LB","freqGain","Mozilla/5.0 (Windows NT 10.0; Win64; x64) AppleWebKit/537.36 (KHTML, like Gecko) Chrome/83.0.4103.61 Safari/537.36","1.21","","1085","","<img src = 'img/A0-B0-L1-W0.jpg' width = '600'>","1","63","","","","",""
"","html-keyboard-response","132","293862","0.0-3.0-1.62","full","Male","30","United States of America","","C245479","LB","freqGain","Mozilla/5.0 (Windows NT 10.0; Win64; x64) AppleWebKit/537.36 (KHTML, like Gecko) Chrome/83.0.4103.61 Safari/537.36","1.21","","null","","Oops, you avoided a friendly hive. You earned <b>0 </b>points.","","63","null","0","56","",""
"","html-button-response","133","294894","0.0-3.0-0.63","full","Male","30","United States of America","","C245479","LB","freqGain","Mozilla/5.0 (Windows NT 10.0; Win64; x64) AppleWebKit/537.36 (KHTML, like Gecko) Chrome/83.0.4103.61 Safari/537.36","1.21","","1027","","<img src = 'img/A1-B0-L1-W0.jpg' width = '600'>","0","64","","","","",""
"","html-keyboard-response","134","296898","0.0-3.0-1.63","full","Male","30","United States of America","","C245479","LB","freqGain","Mozilla/5.0 (Windows NT 10.0; Win64; x64) AppleWebKit/537.36 (KHTML, like Gecko) Chrome/83.0.4103.61 Safari/537.36","1.21","","null","","You successfully harvested honey! You earned <b>1 </b>point.","","64","null","1","57","",""
"","html-button-response","135","298276","0.0-3.0-0.64","full","Male","30","United States of America","","C245479","LB","freqGain","Mozilla/5.0 (Windows NT 10.0; Win64; x64) AppleWebKit/537.36 (KHTML, like Gecko) Chrome/83.0.4103.61 Safari/537.36","1.21","","1369","","<img src = 'img/A0-B0-L0-W0.jpg' width = '600'>","0","65","","","","",""
"","html-keyboard-response","136","300278","0.0-3.0-1.64","full","Male","30","United States of America","","C245479","LB","freqGain","Mozilla/5.0 (Windows NT 10.0; Win64; x64) AppleWebKit/537.36 (KHTML, like Gecko) Chrome/83.0.4103.61 Safari/537.36","1.21","","null","","You successfully harvested honey! You earned <b>1 </b>point.","","65","null","1","58","",""
"","html-button-response","137","301123","0.0-3.0-0.65","full","Male","30","United States of America","","C245479","LB","freqGain","Mozilla/5.0 (Windows NT 10.0; Win64; x64) AppleWebKit/537.36 (KHTML, like Gecko) Chrome/83.0.4103.61 Safari/537.36","1.21","","839","","<img src = 'img/A0-B0-L0-W1.jpg' width = '600'>","0","66","","","","",""
"","html-keyboard-response","138","303126","0.0-3.0-1.65","full","Male","30","United States of America","","C245479","LB","freqGain","Mozilla/5.0 (Windows NT 10.0; Win64; x64) AppleWebKit/537.36 (KHTML, like Gecko) Chrome/83.0.4103.61 Safari/537.36","1.21","","null","","You successfully harvested honey! You earned <b>1 </b>point.","","66","null","1","59","",""
"","html-button-response","139","304187","0.0-3.0-0.66","full","Male","30","United States of America","","C245479","LB","freqGain","Mozilla/5.0 (Windows NT 10.0; Win64; x64) AppleWebKit/537.36 (KHTML, like Gecko) Chrome/83.0.4103.61 Safari/537.36","1.21","","1051","","<img src = 'img/A1-B1-L0-W0.jpg' width = '600'>","0","67","","","","",""
"","html-keyboard-response","140","306190","0.0-3.0-1.66","full","Male","30","United States of America","","C245479","LB","freqGain","Mozilla/5.0 (Windows NT 10.0; Win64; x64) AppleWebKit/537.36 (KHTML, like Gecko) Chrome/83.0.4103.61 Safari/537.36","1.21","","null","","You successfully harvested honey! You earned <b>1 </b>point.","","67","null","1","60","",""
"","html-button-response","141","306783","0.0-3.0-0.67","full","Male","30","United States of America","","C245479","LB","freqGain","Mozilla/5.0 (Windows NT 10.0; Win64; x64) AppleWebKit/537.36 (KHTML, like Gecko) Chrome/83.0.4103.61 Safari/537.36","1.21","","590","","<img src = 'img/A1-B1-L0-W1.jpg' width = '600'>","0","68","","","","",""
"","html-keyboard-response","142","308786","0.0-3.0-1.67","full","Male","30","United States of America","","C245479","LB","freqGain","Mozilla/5.0 (Windows NT 10.0; Win64; x64) AppleWebKit/537.36 (KHTML, like Gecko) Chrome/83.0.4103.61 Safari/537.36","1.21","","null","","You successfully harvested honey! You earned <b>1 </b>point.","","68","null","1","61","",""
"","html-button-response","143","309478","0.0-3.0-0.68","full","Male","30","United States of America","","C245479","LB","freqGain","Mozilla/5.0 (Windows NT 10.0; Win64; x64) AppleWebKit/537.36 (KHTML, like Gecko) Chrome/83.0.4103.61 Safari/537.36","1.21","","688","","<img src = 'img/A0-B1-L0-W0.jpg' width = '600'>","0","69","","","","",""
"","html-keyboard-response","144","311481","0.0-3.0-1.68","full","Male","30","United States of America","","C245479","LB","freqGain","Mozilla/5.0 (Windows NT 10.0; Win64; x64) AppleWebKit/537.36 (KHTML, like Gecko) Chrome/83.0.4103.61 Safari/537.36","1.21","","null","","You successfully harvested honey! You earned <b>1 </b>point.","","69","null","1","62","",""
"","html-button-response","145","313035","0.0-3.0-0.69","full","Male","30","United States of America","","C245479","LB","freqGain","Mozilla/5.0 (Windows NT 10.0; Win64; x64) AppleWebKit/537.36 (KHTML, like Gecko) Chrome/83.0.4103.61 Safari/537.36","1.21","","1533","","<img src = 'img/A0-B1-L1-W0.jpg' width = '600'>","1","70","","","","",""
"","html-keyboard-response","146","315039","0.0-3.0-1.69","full","Male","30","United States of America","","C245479","LB","freqGain","Mozilla/5.0 (Windows NT 10.0; Win64; x64) AppleWebKit/537.36 (KHTML, like Gecko) Chrome/83.0.4103.61 Safari/537.36","1.21","","null","","Whew, you avoided being stung! You earned <b>0 </b> points.","","70","null","0","62","",""
"","html-button-response","147","316253","0.0-3.0-0.70","full","Male","30","United States of America","","C245479","LB","freqGain","Mozilla/5.0 (Windows NT 10.0; Win64; x64) AppleWebKit/537.36 (KHTML, like Gecko) Chrome/83.0.4103.61 Safari/537.36","1.21","","1203","","<img src = 'img/A1-B0-L0-W1.jpg' width = '600'>","0","71","","","","",""
"","html-keyboard-response","148","318256","0.0-3.0-1.70","full","Male","30","United States of America","","C245479","LB","freqGain","Mozilla/5.0 (Windows NT 10.0; Win64; x64) AppleWebKit/537.36 (KHTML, like Gecko) Chrome/83.0.4103.61 Safari/537.36","1.21","","null","","You successfully harvested honey! You earned <b>1 </b>point.","","71","null","1","63","",""
"","html-button-response","149","318961","0.0-3.0-0.71","full","Male","30","United States of America","","C245479","LB","freqGain","Mozilla/5.0 (Windows NT 10.0; Win64; x64) AppleWebKit/537.36 (KHTML, like Gecko) Chrome/83.0.4103.61 Safari/537.36","1.21","","700","","<img src = 'img/A0-B1-L1-W1.jpg' width = '600'>","0","72","","","","",""
"","html-keyboard-response","150","320964","0.0-3.0-1.71","full","Male","30","United States of America","","C245479","LB","freqGain","Mozilla/5.0 (Windows NT 10.0; Win64; x64) AppleWebKit/537.36 (KHTML, like Gecko) Chrome/83.0.4103.61 Safari/537.36","1.21","","null","","Ouch, you were stung! You lost <b>-3 </b>points.","","72","null","-3","60","",""
"","html-button-response","151","322671","0.0-3.0-0.72","full","Male","30","United States of America","","C245479","LB","freqGain","Mozilla/5.0 (Windows NT 10.0; Win64; x64) AppleWebKit/537.36 (KHTML, like Gecko) Chrome/83.0.4103.61 Safari/537.36","1.21","","1704","","<img src = 'img/A1-B0-L1-W1.jpg' width = '600'>","1","73","","","","",""
"","html-keyboard-response","152","324673","0.0-3.0-1.72","full","Male","30","United States of America","","C245479","LB","freqGain","Mozilla/5.0 (Windows NT 10.0; Win64; x64) AppleWebKit/537.36 (KHTML, like Gecko) Chrome/83.0.4103.61 Safari/537.36","1.21","","null","","Oops, you avoided a friendly hive. You earned <b>0 </b>points.","","73","null","0","60","",""
"","html-button-response","153","326669","0.0-3.0-0.73","full","Male","30","United States of America","","C245479","LB","freqGain","Mozilla/5.0 (Windows NT 10.0; Win64; x64) AppleWebKit/537.36 (KHTML, like Gecko) Chrome/83.0.4103.61 Safari/537.36","1.21","","1993","","<img src = 'img/A0-B0-L1-W1.jpg' width = '600'>","1","74","","","","",""
"","html-keyboard-response","154","328672","0.0-3.0-1.73","full","Male","30","United States of America","","C245479","LB","freqGain","Mozilla/5.0 (Windows NT 10.0; Win64; x64) AppleWebKit/537.36 (KHTML, like Gecko) Chrome/83.0.4103.61 Safari/537.36","1.21","","null","","Oops, you avoided a friendly hive. You earned <b>0 </b>points.","","74","null","0","60","",""
"","html-button-response","155","330133","0.0-3.0-0.74","full","Male","30","United States of America","","C245479","LB","freqGain","Mozilla/5.0 (Windows NT 10.0; Win64; x64) AppleWebKit/537.36 (KHTML, like Gecko) Chrome/83.0.4103.61 Safari/537.36","1.21","","1455","","<img src = 'img/A1-B1-L1-W1.jpg' width = '600'>","1","75","","","","",""
"","html-keyboard-response","156","332138","0.0-3.0-1.74","full","Male","30","United States of America","","C245479","LB","freqGain","Mozilla/5.0 (Windows NT 10.0; Win64; x64) AppleWebKit/537.36 (KHTML, like Gecko) Chrome/83.0.4103.61 Safari/537.36","1.21","","null","","Whew, you avoided being stung! You earned <b>0 </b> points.","","75","null","0","60","",""
"","html-button-response","157","332944","0.0-3.0-0.75","full","Male","30","United States of America","","C245479","LB","freqGain","Mozilla/5.0 (Windows NT 10.0; Win64; x64) AppleWebKit/537.36 (KHTML, like Gecko) Chrome/83.0.4103.61 Safari/537.36","1.21","","803","","<img src = 'img/A1-B0-L1-W0.jpg' width = '600'>","0","76","","","","",""
"","html-keyboard-response","158","334947","0.0-3.0-1.75","full","Male","30","United States of America","","C245479","LB","freqGain","Mozilla/5.0 (Windows NT 10.0; Win64; x64) AppleWebKit/537.36 (KHTML, like Gecko) Chrome/83.0.4103.61 Safari/537.36","1.21","","null","","You successfully harvested honey! You earned <b>1 </b>point.","","76","null","1","61","",""
"","html-button-response","159","335595","0.0-3.0-0.76","full","Male","30","United States of America","","C245479","LB","freqGain","Mozilla/5.0 (Windows NT 10.0; Win64; x64) AppleWebKit/537.36 (KHTML, like Gecko) Chrome/83.0.4103.61 Safari/537.36","1.21","","644","","<img src = 'img/A0-B0-L1-W0.jpg' width = '600'>","0","77","","","","",""
"","html-keyboard-response","160","337598","0.0-3.0-1.76","full","Male","30","United States of America","","C245479","LB","freqGain","Mozilla/5.0 (Windows NT 10.0; Win64; x64) AppleWebKit/537.36 (KHTML, like Gecko) Chrome/83.0.4103.61 Safari/537.36","1.21","","null","","You successfully harvested honey! You earned <b>1 </b>point.","","77","null","1","62","",""
"","html-button-response","161","338968","0.0-3.0-0.77","full","Male","30","United States of America","","C245479","LB","freqGain","Mozilla/5.0 (Windows NT 10.0; Win64; x64) AppleWebKit/537.36 (KHTML, like Gecko) Chrome/83.0.4103.61 Safari/537.36","1.21","","1366","","<img src = 'img/A1-B1-L1-W0.jpg' width = '600'>","1","78","","","","",""
"","html-keyboard-response","162","340973","0.0-3.0-1.77","full","Male","30","United States of America","","C245479","LB","freqGain","Mozilla/5.0 (Windows NT 10.0; Win64; x64) AppleWebKit/537.36 (KHTML, like Gecko) Chrome/83.0.4103.61 Safari/537.36","1.21","","null","","Whew, you avoided being stung! You earned <b>0 </b> points.","","78","null","0","62","",""
"","html-button-response","163","341999","0.0-3.0-0.78","full","Male","30","United States of America","","C245479","LB","freqGain","Mozilla/5.0 (Windows NT 10.0; Win64; x64) AppleWebKit/537.36 (KHTML, like Gecko) Chrome/83.0.4103.61 Safari/537.36","1.21","","1020","","<img src = 'img/A0-B1-L0-W1.jpg' width = '600'>","0","79","","","","",""
"","html-keyboard-response","164","344003","0.0-3.0-1.78","full","Male","30","United States of America","","C245479","LB","freqGain","Mozilla/5.0 (Windows NT 10.0; Win64; x64) AppleWebKit/537.36 (KHTML, like Gecko) Chrome/83.0.4103.61 Safari/537.36","1.21","","null","","You successfully harvested honey! You earned <b>1 </b>point.","","79","null","1","63","",""
"","html-button-response","165","344843","0.0-3.0-0.79","full","Male","30","United States of America","","C245479","LB","freqGain","Mozilla/5.0 (Windows NT 10.0; Win64; x64) AppleWebKit/537.36 (KHTML, like Gecko) Chrome/83.0.4103.61 Safari/537.36","1.21","","837","","<img src = 'img/A1-B0-L0-W0.jpg' width = '600'>","0","80","","","","",""
"","html-keyboard-response","166","346846","0.0-3.0-1.79","full","Male","30","United States of America","","C245479","LB","freqGain","Mozilla/5.0 (Windows NT 10.0; Win64; x64) AppleWebKit/537.36 (KHTML, like Gecko) Chrome/83.0.4103.61 Safari/537.36","1.21","","null","","You successfully harvested honey! You earned <b>1 </b>point.","","80","null","1","64","",""
"","html-button-response","167","347321","0.0-3.0-0.80","full","Male","30","United States of America","","C245479","LB","freqGain","Mozilla/5.0 (Windows NT 10.0; Win64; x64) AppleWebKit/537.36 (KHTML, like Gecko) Chrome/83.0.4103.61 Safari/537.36","1.21","","469","","<img src = 'img/A1-B0-L0-W1.jpg' width = '600'>","0","81","","","","",""
"","html-keyboard-response","168","349328","0.0-3.0-1.80","full","Male","30","United States of America","","C245479","LB","freqGain","Mozilla/5.0 (Windows NT 10.0; Win64; x64) AppleWebKit/537.36 (KHTML, like Gecko) Chrome/83.0.4103.61 Safari/537.36","1.21","","null","","You successfully harvested honey! You earned <b>1 </b>point.","","81","null","1","65","",""
"","html-button-response","169","349648","0.0-3.0-0.81","full","Male","30","United States of America","","C245479","LB","freqGain","Mozilla/5.0 (Windows NT 10.0; Win64; x64) AppleWebKit/537.36 (KHTML, like Gecko) Chrome/83.0.4103.61 Safari/537.36","1.21","","314","","<img src = 'img/A0-B1-L0-W0.jpg' width = '600'>","0","82","","","","",""
"","html-keyboard-response","170","351653","0.0-3.0-1.81","full","Male","30","United States of America","","C245479","LB","freqGain","Mozilla/5.0 (Windows NT 10.0; Win64; x64) AppleWebKit/537.36 (KHTML, like Gecko) Chrome/83.0.4103.61 Safari/537.36","1.21","","null","","You successfully harvested honey! You earned <b>1 </b>point.","","82","null","1","66","",""
"","html-button-response","171","352236","0.0-3.0-0.82","full","Male","30","United States of America","","C245479","LB","freqGain","Mozilla/5.0 (Windows NT 10.0; Win64; x64) AppleWebKit/537.36 (KHTML, like Gecko) Chrome/83.0.4103.61 Safari/537.36","1.21","","577","","<img src = 'img/A0-B0-L0-W1.jpg' width = '600'>","0","83","","","","",""
"","html-keyboard-response","172","354239","0.0-3.0-1.82","full","Male","30","United States of America","","C245479","LB","freqGain","Mozilla/5.0 (Windows NT 10.0; Win64; x64) AppleWebKit/537.36 (KHTML, like Gecko) Chrome/83.0.4103.61 Safari/537.36","1.21","","null","","You successfully harvested honey! You earned <b>1 </b>point.","","83","null","1","67","",""
"","html-button-response","173","355646","0.0-3.0-0.83","full","Male","30","United States of America","","C245479","LB","freqGain","Mozilla/5.0 (Windows NT 10.0; Win64; x64) AppleWebKit/537.36 (KHTML, like Gecko) Chrome/83.0.4103.61 Safari/537.36","1.21","","1400","","<img src = 'img/A0-B1-L1-W0.jpg' width = '600'>","1","84","","","","",""
"","html-keyboard-response","174","357648","0.0-3.0-1.83","full","Male","30","United States of America","","C245479","LB","freqGain","Mozilla/5.0 (Windows NT 10.0; Win64; x64) AppleWebKit/537.36 (KHTML, like Gecko) Chrome/83.0.4103.61 Safari/537.36","1.21","","null","","Whew, you avoided being stung! You earned <b>0 </b> points.","","84","null","0","67","",""
"","html-button-response","175","358848","0.0-3.0-0.84","full","Male","30","United States of America","","C245479","LB","freqGain","Mozilla/5.0 (Windows NT 10.0; Win64; x64) AppleWebKit/537.36 (KHTML, like Gecko) Chrome/83.0.4103.61 Safari/537.36","1.21","","1197","","<img src = 'img/A0-B0-L0-W0.jpg' width = '600'>","0","85","","","","",""
"","html-keyboard-response","176","360851","0.0-3.0-1.84","full","Male","30","United States of America","","C245479","LB","freqGain","Mozilla/5.0 (Windows NT 10.0; Win64; x64) AppleWebKit/537.36 (KHTML, like Gecko) Chrome/83.0.4103.61 Safari/537.36","1.21","","null","","You successfully harvested honey! You earned <b>1 </b>point.","","85","null","1","68","",""
"","html-button-response","177","362429","0.0-3.0-0.85","full","Male","30","United States of America","","C245479","LB","freqGain","Mozilla/5.0 (Windows NT 10.0; Win64; x64) AppleWebKit/537.36 (KHTML, like Gecko) Chrome/83.0.4103.61 Safari/537.36","1.21","","1571","","<img src = 'img/A1-B1-L1-W0.jpg' width = '600'>","1","86","","","","",""
"","html-keyboard-response","178","364432","0.0-3.0-1.85","full","Male","30","United States of America","","C245479","LB","freqGain","Mozilla/5.0 (Windows NT 10.0; Win64; x64) AppleWebKit/537.36 (KHTML, like Gecko) Chrome/83.0.4103.61 Safari/537.36","1.21","","null","","Whew, you avoided being stung! You earned <b>0 </b> points.","","86","null","0","68","",""
"","html-button-response","179","367289","0.0-3.0-0.86","full","Male","30","United States of America","","C245479","LB","freqGain","Mozilla/5.0 (Windows NT 10.0; Win64; x64) AppleWebKit/537.36 (KHTML, like Gecko) Chrome/83.0.4103.61 Safari/537.36","1.21","","2855","","<img src = 'img/A1-B0-L1-W1.jpg' width = '600'>","0","87","","","","",""
"","html-keyboard-response","180","369293","0.0-3.0-1.86","full","Male","30","United States of America","","C245479","LB","freqGain","Mozilla/5.0 (Windows NT 10.0; Win64; x64) AppleWebKit/537.36 (KHTML, like Gecko) Chrome/83.0.4103.61 Safari/537.36","1.21","","null","","You successfully harvested honey! You earned <b>1 </b>point.","","87","null","1","69","",""
"","html-button-response","181","371652","0.0-3.0-0.87","full","Male","30","United States of America","","C245479","LB","freqGain","Mozilla/5.0 (Windows NT 10.0; Win64; x64) AppleWebKit/537.36 (KHTML, like Gecko) Chrome/83.0.4103.61 Safari/537.36","1.21","","2352","","<img src = 'img/A1-B0-L1-W0.jpg' width = '600'>","0","88","","","","",""
"","html-keyboard-response","182","373657","0.0-3.0-1.87","full","Male","30","United States of America","","C245479","LB","freqGain","Mozilla/5.0 (Windows NT 10.0; Win64; x64) AppleWebKit/537.36 (KHTML, like Gecko) Chrome/83.0.4103.61 Safari/537.36","1.21","","null","","You successfully harvested honey! You earned <b>1 </b>point.","","88","null","1","70","",""
"","html-button-response","183","374315","0.0-3.0-0.88","full","Male","30","United States of America","","C245479","LB","freqGain","Mozilla/5.0 (Windows NT 10.0; Win64; x64) AppleWebKit/537.36 (KHTML, like Gecko) Chrome/83.0.4103.61 Safari/537.36","1.21","","653","","<img src = 'img/A1-B0-L0-W0.jpg' width = '600'>","0","89","","","","",""
"","html-keyboard-response","184","376317","0.0-3.0-1.88","full","Male","30","United States of America","","C245479","LB","freqGain","Mozilla/5.0 (Windows NT 10.0; Win64; x64) AppleWebKit/537.36 (KHTML, like Gecko) Chrome/83.0.4103.61 Safari/537.36","1.21","","null","","You successfully harvested honey! You earned <b>1 </b>point.","","89","null","1","71","",""
"","html-button-response","185","377059","0.0-3.0-0.89","full","Male","30","United States of America","","C245479","LB","freqGain","Mozilla/5.0 (Windows NT 10.0; Win64; x64) AppleWebKit/537.36 (KHTML, like Gecko) Chrome/83.0.4103.61 Safari/537.36","1.21","","737","","<img src = 'img/A0-B0-L1-W1.jpg' width = '600'>","0","90","","","","",""
"","html-keyboard-response","186","379063","0.0-3.0-1.89","full","Male","30","United States of America","","C245479","LB","freqGain","Mozilla/5.0 (Windows NT 10.0; Win64; x64) AppleWebKit/537.36 (KHTML, like Gecko) Chrome/83.0.4103.61 Safari/537.36","1.21","","null","","You successfully harvested honey! You earned <b>1 </b>point.","","90","null","1","72","",""
"","html-button-response","187","380427","0.0-3.0-0.90","full","Male","30","United States of America","","C245479","LB","freqGain","Mozilla/5.0 (Windows NT 10.0; Win64; x64) AppleWebKit/537.36 (KHTML, like Gecko) Chrome/83.0.4103.61 Safari/537.36","1.21","","1360","","<img src = 'img/A0-B1-L1-W1.jpg' width = '600'>","1","91","","","","",""
"","html-keyboard-response","188","382431","0.0-3.0-1.90","full","Male","30","United States of America","","C245479","LB","freqGain","Mozilla/5.0 (Windows NT 10.0; Win64; x64) AppleWebKit/537.36 (KHTML, like Gecko) Chrome/83.0.4103.61 Safari/537.36","1.21","","null","","Whew, you avoided being stung! You earned <b>0 </b> points.","","91","null","0","72","",""
"","html-button-response","189","383881","0.0-3.0-0.91","full","Male","30","United States of America","","C245479","LB","freqGain","Mozilla/5.0 (Windows NT 10.0; Win64; x64) AppleWebKit/537.36 (KHTML, like Gecko) Chrome/83.0.4103.61 Safari/537.36","1.21","","1447","","<img src = 'img/A0-B0-L1-W0.jpg' width = '600'>","0","92","","","","",""
"","html-keyboard-response","190","385890","0.0-3.0-1.91","full","Male","30","United States of America","","C245479","LB","freqGain","Mozilla/5.0 (Windows NT 10.0; Win64; x64) AppleWebKit/537.36 (KHTML, like Gecko) Chrome/83.0.4103.61 Safari/537.36","1.21","","null","","You successfully harvested honey! You earned <b>1 </b>point.","","92","null","1","73","",""
"","html-button-response","191","386243","0.0-3.0-0.92","full","Male","30","United States of America","","C245479","LB","freqGain","Mozilla/5.0 (Windows NT 10.0; Win64; x64) AppleWebKit/537.36 (KHTML, like Gecko) Chrome/83.0.4103.61 Safari/537.36","1.21","","347","","<img src = 'img/A1-B1-L0-W1.jpg' width = '600'>","0","93","","","","",""
"","html-keyboard-response","192","388246","0.0-3.0-1.92","full","Male","30","United States of America","","C245479","LB","freqGain","Mozilla/5.0 (Windows NT 10.0; Win64; x64) AppleWebKit/537.36 (KHTML, like Gecko) Chrome/83.0.4103.61 Safari/537.36","1.21","","null","","You successfully harvested honey! You earned <b>1 </b>point.","","93","null","1","74","",""
"","html-button-response","193","388742","0.0-3.0-0.93","full","Male","30","United States of America","","C245479","LB","freqGain","Mozilla/5.0 (Windows NT 10.0; Win64; x64) AppleWebKit/537.36 (KHTML, like Gecko) Chrome/83.0.4103.61 Safari/537.36","1.21","","493","","<img src = 'img/A1-B1-L0-W0.jpg' width = '600'>","0","94","","","","",""
"","html-keyboard-response","194","390745","0.0-3.0-1.93","full","Male","30","United States of America","","C245479","LB","freqGain","Mozilla/5.0 (Windows NT 10.0; Win64; x64) AppleWebKit/537.36 (KHTML, like Gecko) Chrome/83.0.4103.61 Safari/537.36","1.21","","null","","You successfully harvested honey! You earned <b>1 </b>point.","","94","null","1","75","",""
"","html-button-response","195","391607","0.0-3.0-0.94","full","Male","30","United States of America","","C245479","LB","freqGain","Mozilla/5.0 (Windows NT 10.0; Win64; x64) AppleWebKit/537.36 (KHTML, like Gecko) Chrome/83.0.4103.61 Safari/537.36","1.21","","856","","<img src = 'img/A0-B1-L0-W1.jpg' width = '600'>","0","95","","","","",""
"","html-keyboard-response","196","393611","0.0-3.0-1.94","full","Male","30","United States of America","","C245479","LB","freqGain","Mozilla/5.0 (Windows NT 10.0; Win64; x64) AppleWebKit/537.36 (KHTML, like Gecko) Chrome/83.0.4103.61 Safari/537.36","1.21","","null","","You successfully harvested honey! You earned <b>1 </b>point.","","95","null","1","76","",""
"","html-button-response","197","396312","0.0-3.0-0.95","full","Male","30","United States of America","","C245479","LB","freqGain","Mozilla/5.0 (Windows NT 10.0; Win64; x64) AppleWebKit/537.36 (KHTML, like Gecko) Chrome/83.0.4103.61 Safari/537.36","1.21","","2700","","<img src = 'img/A1-B1-L1-W1.jpg' width = '600'>","1","96","","","","",""
"","html-keyboard-response","198","398314","0.0-3.0-1.95","full","Male","30","United States of America","","C245479","LB","freqGain","Mozilla/5.0 (Windows NT 10.0; Win64; x64) AppleWebKit/537.36 (KHTML, like Gecko) Chrome/83.0.4103.61 Safari/537.36","1.21","","null","","Whew, you avoided being stung! You earned <b>0 </b> points.","","96","null","0","76","",""
"","html-button-response","199","399794","0.0-3.0-0.96","full","Male","30","United States of America","","C245479","LB","freqGain","Mozilla/5.0 (Windows NT 10.0; Win64; x64) AppleWebKit/537.36 (KHTML, like Gecko) Chrome/83.0.4103.61 Safari/537.36","1.21","","1476","","<img src = 'img/A0-B1-L0-W1.jpg' width = '600'>","0","97","","","","",""
"","html-keyboard-response","200","401801","0.0-3.0-1.96","full","Male","30","United States of America","","C245479","LB","freqGain","Mozilla/5.0 (Windows NT 10.0; Win64; x64) AppleWebKit/537.36 (KHTML, like Gecko) Chrome/83.0.4103.61 Safari/537.36","1.21","","null","","You successfully harvested honey! You earned <b>1 </b>point.","","97","null","1","77","",""
"","html-button-response","201","402160","0.0-3.0-0.97","full","Male","30","United States of America","","C245479","LB","freqGain","Mozilla/5.0 (Windows NT 10.0; Win64; x64) AppleWebKit/537.36 (KHTML, like Gecko) Chrome/83.0.4103.61 Safari/537.36","1.21","","354","","<img src = 'img/A1-B1-L0-W0.jpg' width = '600'>","0","98","","","","",""
"","html-keyboard-response","202","404163","0.0-3.0-1.97","full","Male","30","United States of America","","C245479","LB","freqGain","Mozilla/5.0 (Windows NT 10.0; Win64; x64) AppleWebKit/537.36 (KHTML, like Gecko) Chrome/83.0.4103.61 Safari/537.36","1.21","","null","","You successfully harvested honey! You earned <b>1 </b>point.","","98","null","1","78","",""
"","html-button-response","203","404741","0.0-3.0-0.98","full","Male","30","United States of America","","C245479","LB","freqGain","Mozilla/5.0 (Windows NT 10.0; Win64; x64) AppleWebKit/537.36 (KHTML, like Gecko) Chrome/83.0.4103.61 Safari/537.36","1.21","","571","","<img src = 'img/A0-B0-L1-W1.jpg' width = '600'>","0","99","","","","",""
"","html-keyboard-response","204","406744","0.0-3.0-1.98","full","Male","30","United States of America","","C245479","LB","freqGain","Mozilla/5.0 (Windows NT 10.0; Win64; x64) AppleWebKit/537.36 (KHTML, like Gecko) Chrome/83.0.4103.61 Safari/537.36","1.21","","null","","You successfully harvested honey! You earned <b>1 </b>point.","","99","null","1","79","",""
"","html-button-response","205","408302","0.0-3.0-0.99","full","Male","30","United States of America","","C245479","LB","freqGain","Mozilla/5.0 (Windows NT 10.0; Win64; x64) AppleWebKit/537.36 (KHTML, like Gecko) Chrome/83.0.4103.61 Safari/537.36","1.21","","1551","","<img src = 'img/A1-B1-L1-W1.jpg' width = '600'>","1","100","","","","",""
"","html-keyboard-response","206","410305","0.0-3.0-1.99","full","Male","30","United States of America","","C245479","LB","freqGain","Mozilla/5.0 (Windows NT 10.0; Win64; x64) AppleWebKit/537.36 (KHTML, like Gecko) Chrome/83.0.4103.61 Safari/537.36","1.21","","null","","Whew, you avoided being stung! You earned <b>0 </b> points.","","100","null","0","79","",""
"","html-button-response","207","410741","0.0-3.0-0.100","full","Male","30","United States of America","","C245479","LB","freqGain","Mozilla/5.0 (Windows NT 10.0; Win64; x64) AppleWebKit/537.36 (KHTML, like Gecko) Chrome/83.0.4103.61 Safari/537.36","1.21","","433","","<img src = 'img/A0-B0-L1-W0.jpg' width = '600'>","0","101","","","","",""
"","html-keyboard-response","208","412747","0.0-3.0-1.100","full","Male","30","United States of America","","C245479","LB","freqGain","Mozilla/5.0 (Windows NT 10.0; Win64; x64) AppleWebKit/537.36 (KHTML, like Gecko) Chrome/83.0.4103.61 Safari/537.36","1.21","","null","","You successfully harvested honey! You earned <b>1 </b>point.","","101","null","1","80","",""
"","html-button-response","209","415419","0.0-3.0-0.101","full","Male","30","United States of America","","C245479","LB","freqGain","Mozilla/5.0 (Windows NT 10.0; Win64; x64) AppleWebKit/537.36 (KHTML, like Gecko) Chrome/83.0.4103.61 Safari/537.36","1.21","","2667","","<img src = 'img/A1-B1-L1-W0.jpg' width = '600'>","1","102","","","","",""
"","html-keyboard-response","210","417423","0.0-3.0-1.101","full","Male","30","United States of America","","C245479","LB","freqGain","Mozilla/5.0 (Windows NT 10.0; Win64; x64) AppleWebKit/537.36 (KHTML, like Gecko) Chrome/83.0.4103.61 Safari/537.36","1.21","","null","","Whew, you avoided being stung! You earned <b>0 </b> points.","","102","null","0","80","",""
"","html-button-response","211","418291","0.0-3.0-0.102","full","Male","30","United States of America","","C245479","LB","freqGain","Mozilla/5.0 (Windows NT 10.0; Win64; x64) AppleWebKit/537.36 (KHTML, like Gecko) Chrome/83.0.4103.61 Safari/537.36","1.21","","855","","<img src = 'img/A0-B1-L0-W0.jpg' width = '600'>","0","103","","","","",""
"","html-keyboard-response","212","420294","0.0-3.0-1.102","full","Male","30","United States of America","","C245479","LB","freqGain","Mozilla/5.0 (Windows NT 10.0; Win64; x64) AppleWebKit/537.36 (KHTML, like Gecko) Chrome/83.0.4103.61 Safari/537.36","1.21","","null","","You successfully harvested honey! You earned <b>1 </b>point.","","103","null","1","81","",""
"","html-button-response","213","420849","0.0-3.0-0.103","full","Male","30","United States of America","","C245479","LB","freqGain","Mozilla/5.0 (Windows NT 10.0; Win64; x64) AppleWebKit/537.36 (KHTML, like Gecko) Chrome/83.0.4103.61 Safari/537.36","1.21","","546","","<img src = 'img/A0-B0-L0-W1.jpg' width = '600'>","0","104","","","","",""
"","html-keyboard-response","214","422853","0.0-3.0-1.103","full","Male","30","United States of America","","C245479","LB","freqGain","Mozilla/5.0 (Windows NT 10.0; Win64; x64) AppleWebKit/537.36 (KHTML, like Gecko) Chrome/83.0.4103.61 Safari/537.36","1.21","","null","","You successfully harvested honey! You earned <b>1 </b>point.","","104","null","1","82","",""
"","html-button-response","215","423646","0.0-3.0-0.104","full","Male","30","United States of America","","C245479","LB","freqGain","Mozilla/5.0 (Windows NT 10.0; Win64; x64) AppleWebKit/537.36 (KHTML, like Gecko) Chrome/83.0.4103.61 Safari/537.36","1.21","","787","","<img src = 'img/A1-B0-L0-W0.jpg' width = '600'>","0","105","","","","",""
"","html-keyboard-response","216","425651","0.0-3.0-1.104","full","Male","30","United States of America","","C245479","LB","freqGain","Mozilla/5.0 (Windows NT 10.0; Win64; x64) AppleWebKit/537.36 (KHTML, like Gecko) Chrome/83.0.4103.61 Safari/537.36","1.21","","null","","You successfully harvested honey! You earned <b>1 </b>point.","","105","null","1","83","",""
"","html-button-response","217","426339","0.0-3.0-0.105","full","Male","30","United States of America","","C245479","LB","freqGain","Mozilla/5.0 (Windows NT 10.0; Win64; x64) AppleWebKit/537.36 (KHTML, like Gecko) Chrome/83.0.4103.61 Safari/537.36","1.21","","684","","<img src = 'img/A0-B0-L0-W0.jpg' width = '600'>","0","106","","","","",""
"","html-keyboard-response","218","428341","0.0-3.0-1.105","full","Male","30","United States of America","","C245479","LB","freqGain","Mozilla/5.0 (Windows NT 10.0; Win64; x64) AppleWebKit/537.36 (KHTML, like Gecko) Chrome/83.0.4103.61 Safari/537.36","1.21","","null","","You successfully harvested honey! You earned <b>1 </b>point.","","106","null","1","84","",""
"","html-button-response","219","428686","0.0-3.0-0.106","full","Male","30","United States of America","","C245479","LB","freqGain","Mozilla/5.0 (Windows NT 10.0; Win64; x64) AppleWebKit/537.36 (KHTML, like Gecko) Chrome/83.0.4103.61 Safari/537.36","1.21","","342","","<img src = 'img/A1-B0-L1-W1.jpg' width = '600'>","0","107","","","","",""
"","html-keyboard-response","220","430692","0.0-3.0-1.106","full","Male","30","United States of America","","C245479","LB","freqGain","Mozilla/5.0 (Windows NT 10.0; Win64; x64) AppleWebKit/537.36 (KHTML, like Gecko) Chrome/83.0.4103.61 Safari/537.36","1.21","","null","","You successfully harvested honey! You earned <b>1 </b>point.","","107","null","1","85","",""
"","html-button-response","221","431314","0.0-3.0-0.107","full","Male","30","United States of America","","C245479","LB","freqGain","Mozilla/5.0 (Windows NT 10.0; Win64; x64) AppleWebKit/537.36 (KHTML, like Gecko) Chrome/83.0.4103.61 Safari/537.36","1.21","","614","","<img src = 'img/A0-B1-L1-W1.jpg' width = '600'>","0","108","","","","",""
"","html-keyboard-response","222","433320","0.0-3.0-1.107","full","Male","30","United States of America","","C245479","LB","freqGain","Mozilla/5.0 (Windows NT 10.0; Win64; x64) AppleWebKit/537.36 (KHTML, like Gecko) Chrome/83.0.4103.61 Safari/537.36","1.21","","null","","Ouch, you were stung! You lost <b>-3 </b>points.","","108","null","-3","82","",""
"","html-button-response","223","435331","0.0-3.0-0.108","full","Male","30","United States of America","","C245479","LB","freqGain","Mozilla/5.0 (Windows NT 10.0; Win64; x64) AppleWebKit/537.36 (KHTML, like Gecko) Chrome/83.0.4103.61 Safari/537.36","1.21","","2008","","<img src = 'img/A1-B0-L1-W0.jpg' width = '600'>","0","109","","","","",""
"","html-keyboard-response","224","437337","0.0-3.0-1.108","full","Male","30","United States of America","","C245479","LB","freqGain","Mozilla/5.0 (Windows NT 10.0; Win64; x64) AppleWebKit/537.36 (KHTML, like Gecko) Chrome/83.0.4103.61 Safari/537.36","1.21","","null","","You successfully harvested honey! You earned <b>1 </b>point.","","109","null","1","83","",""
"","html-button-response","225","439103","0.0-3.0-0.109","full","Male","30","United States of America","","C245479","LB","freqGain","Mozilla/5.0 (Windows NT 10.0; Win64; x64) AppleWebKit/537.36 (KHTML, like Gecko) Chrome/83.0.4103.61 Safari/537.36","1.21","","1750","","<img src = 'img/A0-B1-L1-W0.jpg' width = '600'>","1","110","","","","",""
"","html-keyboard-response","226","441107","0.0-3.0-1.109","full","Male","30","United States of America","","C245479","LB","freqGain","Mozilla/5.0 (Windows NT 10.0; Win64; x64) AppleWebKit/537.36 (KHTML, like Gecko) Chrome/83.0.4103.61 Safari/537.36","1.21","","null","","Whew, you avoided being stung! You earned <b>0 </b> points.","","110","null","0","83","",""
"","html-button-response","227","442107","0.0-3.0-0.110","full","Male","30","United States of America","","C245479","LB","freqGain","Mozilla/5.0 (Windows NT 10.0; Win64; x64) AppleWebKit/537.36 (KHTML, like Gecko) Chrome/83.0.4103.61 Safari/537.36","1.21","","996","","<img src = 'img/A1-B1-L0-W1.jpg' width = '600'>","0","111","","","","",""
"","html-keyboard-response","228","444111","0.0-3.0-1.110","full","Male","30","United States of America","","C245479","LB","freqGain","Mozilla/5.0 (Windows NT 10.0; Win64; x64) AppleWebKit/537.36 (KHTML, like Gecko) Chrome/83.0.4103.61 Safari/537.36","1.21","","null","","You successfully harvested honey! You earned <b>1 </b>point.","","111","null","1","84","",""
"","html-button-response","229","444730","0.0-3.0-0.111","full","Male","30","United States of America","","C245479","LB","freqGain","Mozilla/5.0 (Windows NT 10.0; Win64; x64) AppleWebKit/537.36 (KHTML, like Gecko) Chrome/83.0.4103.61 Safari/537.36","1.21","","613","","<img src = 'img/A1-B0-L0-W1.jpg' width = '600'>","0","112","","","","",""
"","html-keyboard-response","230","446734","0.0-3.0-1.111","full","Male","30","United States of America","","C245479","LB","freqGain","Mozilla/5.0 (Windows NT 10.0; Win64; x64) AppleWebKit/537.36 (KHTML, like Gecko) Chrome/83.0.4103.61 Safari/537.36","1.21","","null","","You successfully harvested honey! You earned <b>1 </b>point.","","112","null","1","85","",""
"","html-button-response","231","448118","0.0-3.0-0.112","full","Male","30","United States of America","","C245479","LB","freqGain","Mozilla/5.0 (Windows NT 10.0; Win64; x64) AppleWebKit/537.36 (KHTML, like Gecko) Chrome/83.0.4103.61 Safari/537.36","1.21","","1378","","<img src = 'img/A1-B1-L0-W0.jpg' width = '600'>","0","113","","","","",""
"","html-keyboard-response","232","450121","0.0-3.0-1.112","full","Male","30","United States of America","","C245479","LB","freqGain","Mozilla/5.0 (Windows NT 10.0; Win64; x64) AppleWebKit/537.36 (KHTML, like Gecko) Chrome/83.0.4103.61 Safari/537.36","1.21","","null","","You successfully harvested honey! You earned <b>1 </b>point.","","113","null","1","86","",""
"","html-button-response","233","450676","0.0-3.0-0.113","full","Male","30","United States of America","","C245479","LB","freqGain","Mozilla/5.0 (Windows NT 10.0; Win64; x64) AppleWebKit/537.36 (KHTML, like Gecko) Chrome/83.0.4103.61 Safari/537.36","1.21","","549","","<img src = 'img/A0-B0-L0-W0.jpg' width = '600'>","0","114","","","","",""
"","html-keyboard-response","234","452681","0.0-3.0-1.113","full","Male","30","United States of America","","C245479","LB","freqGain","Mozilla/5.0 (Windows NT 10.0; Win64; x64) AppleWebKit/537.36 (KHTML, like Gecko) Chrome/83.0.4103.61 Safari/537.36","1.21","","null","","You successfully harvested honey! You earned <b>1 </b>point.","","114","null","1","87","",""
"","html-button-response","235","454626","0.0-3.0-0.114","full","Male","30","United States of America","","C245479","LB","freqGain","Mozilla/5.0 (Windows NT 10.0; Win64; x64) AppleWebKit/537.36 (KHTML, like Gecko) Chrome/83.0.4103.61 Safari/537.36","1.21","","1939","","<img src = 'img/A1-B1-L1-W0.jpg' width = '600'>","1","115","","","","",""
"","html-keyboard-response","236","456629","0.0-3.0-1.114","full","Male","30","United States of America","","C245479","LB","freqGain","Mozilla/5.0 (Windows NT 10.0; Win64; x64) AppleWebKit/537.36 (KHTML, like Gecko) Chrome/83.0.4103.61 Safari/537.36","1.21","","null","","Whew, you avoided being stung! You earned <b>0 </b> points.","","115","null","0","87","",""
"","html-button-response","237","458393","0.0-3.0-0.115","full","Male","30","United States of America","","C245479","LB","freqGain","Mozilla/5.0 (Windows NT 10.0; Win64; x64) AppleWebKit/537.36 (KHTML, like Gecko) Chrome/83.0.4103.61 Safari/537.36","1.21","","1760","","<img src = 'img/A0-B1-L1-W0.jpg' width = '600'>","1","116","","","","",""
"","html-keyboard-response","238","460396","0.0-3.0-1.115","full","Male","30","United States of America","","C245479","LB","freqGain","Mozilla/5.0 (Windows NT 10.0; Win64; x64) AppleWebKit/537.36 (KHTML, like Gecko) Chrome/83.0.4103.61 Safari/537.36","1.21","","null","","Whew, you avoided being stung! You earned <b>0 </b> points.","","116","null","0","87","",""
"","html-button-response","239","461046","0.0-3.0-0.116","full","Male","30","United States of America","","C245479","LB","freqGain","Mozilla/5.0 (Windows NT 10.0; Win64; x64) AppleWebKit/537.36 (KHTML, like Gecko) Chrome/83.0.4103.61 Safari/537.36","1.21","","644","","<img src = 'img/A0-B0-L1-W1.jpg' width = '600'>","0","117","","","","",""
"","html-keyboard-response","240","463056","0.0-3.0-1.116","full","Male","30","United States of America","","C245479","LB","freqGain","Mozilla/5.0 (Windows NT 10.0; Win64; x64) AppleWebKit/537.36 (KHTML, like Gecko) Chrome/83.0.4103.61 Safari/537.36","1.21","","null","","You successfully harvested honey! You earned <b>1 </b>point.","","117","null","1","88","",""
"","html-button-response","241","463778","0.0-3.0-0.117","full","Male","30","United States of America","","C245479","LB","freqGain","Mozilla/5.0 (Windows NT 10.0; Win64; x64) AppleWebKit/537.36 (KHTML, like Gecko) Chrome/83.0.4103.61 Safari/537.36","1.21","","713","","<img src = 'img/A1-B1-L0-W1.jpg' width = '600'>","0","118","","","","",""
"","html-keyboard-response","242","465784","0.0-3.0-1.117","full","Male","30","United States of America","","C245479","LB","freqGain","Mozilla/5.0 (Windows NT 10.0; Win64; x64) AppleWebKit/537.36 (KHTML, like Gecko) Chrome/83.0.4103.61 Safari/537.36","1.21","","null","","You successfully harvested honey! You earned <b>1 </b>point.","","118","null","1","89","",""
"","html-button-response","243","466308","0.0-3.0-0.118","full","Male","30","United States of America","","C245479","LB","freqGain","Mozilla/5.0 (Windows NT 10.0; Win64; x64) AppleWebKit/537.36 (KHTML, like Gecko) Chrome/83.0.4103.61 Safari/537.36","1.21","","513","","<img src = 'img/A0-B0-L0-W1.jpg' width = '600'>","0","119","","","","",""
"","html-keyboard-response","244","468313","0.0-3.0-1.118","full","Male","30","United States of America","","C245479","LB","freqGain","Mozilla/5.0 (Windows NT 10.0; Win64; x64) AppleWebKit/537.36 (KHTML, like Gecko) Chrome/83.0.4103.61 Safari/537.36","1.21","","null","","You successfully harvested honey! You earned <b>1 </b>point.","","119","null","1","90","",""
"","html-button-response","245","468801","0.0-3.0-0.119","full","Male","30","United States of America","","C245479","LB","freqGain","Mozilla/5.0 (Windows NT 10.0; Win64; x64) AppleWebKit/537.36 (KHTML, like Gecko) Chrome/83.0.4103.61 Safari/537.36","1.21","","482","","<img src = 'img/A1-B0-L1-W0.jpg' width = '600'>","0","120","","","","",""
"","html-keyboard-response","246","470807","0.0-3.0-1.119","full","Male","30","United States of America","","C245479","LB","freqGain","Mozilla/5.0 (Windows NT 10.0; Win64; x64) AppleWebKit/537.36 (KHTML, like Gecko) Chrome/83.0.4103.61 Safari/537.36","1.21","","null","","You successfully harvested honey! You earned <b>1 </b>point.","","120","null","1","91","",""
"","html-button-response","247","471280","0.0-3.0-0.120","full","Male","30","United States of America","","C245479","LB","freqGain","Mozilla/5.0 (Windows NT 10.0; Win64; x64) AppleWebKit/537.36 (KHTML, like Gecko) Chrome/83.0.4103.61 Safari/537.36","1.21","","469","","<img src = 'img/A0-B0-L1-W0.jpg' width = '600'>","0","121","","","","",""
"","html-keyboard-response","248","473286","0.0-3.0-1.120","full","Male","30","United States of America","","C245479","LB","freqGain","Mozilla/5.0 (Windows NT 10.0; Win64; x64) AppleWebKit/537.36 (KHTML, like Gecko) Chrome/83.0.4103.61 Safari/537.36","1.21","","null","","You successfully harvested honey! You earned <b>1 </b>point.","","121","null","1","92","",""
"","html-button-response","249","473978","0.0-3.0-0.121","full","Male","30","United States of America","","C245479","LB","freqGain","Mozilla/5.0 (Windows NT 10.0; Win64; x64) AppleWebKit/537.36 (KHTML, like Gecko) Chrome/83.0.4103.61 Safari/537.36","1.21","","686","","<img src = 'img/A0-B1-L0-W1.jpg' width = '600'>","0","122","","","","",""
"","html-keyboard-response","250","475991","0.0-3.0-1.121","full","Male","30","United States of America","","C245479","LB","freqGain","Mozilla/5.0 (Windows NT 10.0; Win64; x64) AppleWebKit/537.36 (KHTML, like Gecko) Chrome/83.0.4103.61 Safari/537.36","1.21","","null","","You successfully harvested honey! You earned <b>1 </b>point.","","122","null","1","93","",""
"","html-button-response","251","476474","0.0-3.0-0.122","full","Male","30","United States of America","","C245479","LB","freqGain","Mozilla/5.0 (Windows NT 10.0; Win64; x64) AppleWebKit/537.36 (KHTML, like Gecko) Chrome/83.0.4103.61 Safari/537.36","1.21","","476","","<img src = 'img/A1-B0-L0-W0.jpg' width = '600'>","0","123","","","","",""
"","html-keyboard-response","252","478477","0.0-3.0-1.122","full","Male","30","United States of America","","C245479","LB","freqGain","Mozilla/5.0 (Windows NT 10.0; Win64; x64) AppleWebKit/537.36 (KHTML, like Gecko) Chrome/83.0.4103.61 Safari/537.36","1.21","","null","","You successfully harvested honey! You earned <b>1 </b>point.","","123","null","1","94","",""
"","html-button-response","253","480047","0.0-3.0-0.123","full","Male","30","United States of America","","C245479","LB","freqGain","Mozilla/5.0 (Windows NT 10.0; Win64; x64) AppleWebKit/537.36 (KHTML, like Gecko) Chrome/83.0.4103.61 Safari/537.36","1.21","","1564","","<img src = 'img/A0-B1-L1-W1.jpg' width = '600'>","1","124","","","","",""
"","html-keyboard-response","254","482054","0.0-3.0-1.123","full","Male","30","United States of America","","C245479","LB","freqGain","Mozilla/5.0 (Windows NT 10.0; Win64; x64) AppleWebKit/537.36 (KHTML, like Gecko) Chrome/83.0.4103.61 Safari/537.36","1.21","","null","","Whew, you avoided being stung! You earned <b>0 </b> points.","","124","null","0","94","",""
"","html-button-response","255","483554","0.0-3.0-0.124","full","Male","30","United States of America","","C245479","LB","freqGain","Mozilla/5.0 (Windows NT 10.0; Win64; x64) AppleWebKit/537.36 (KHTML, like Gecko) Chrome/83.0.4103.61 Safari/537.36","1.21","","1497","","<img src = 'img/A1-B0-L1-W1.jpg' width = '600'>","0","125","","","","",""
"","html-keyboard-response","256","485557","0.0-3.0-1.124","full","Male","30","United States of America","","C245479","LB","freqGain","Mozilla/5.0 (Windows NT 10.0; Win64; x64) AppleWebKit/537.36 (KHTML, like Gecko) Chrome/83.0.4103.61 Safari/537.36","1.21","","null","","You successfully harvested honey! You earned <b>1 </b>point.","","125","null","1","95","",""
"","html-button-response","257","486222","0.0-3.0-0.125","full","Male","30","United States of America","","C245479","LB","freqGain","Mozilla/5.0 (Windows NT 10.0; Win64; x64) AppleWebKit/537.36 (KHTML, like Gecko) Chrome/83.0.4103.61 Safari/537.36","1.21","","661","","<img src = 'img/A0-B1-L0-W0.jpg' width = '600'>","0","126","","","","",""
"","html-keyboard-response","258","488227","0.0-3.0-1.125","full","Male","30","United States of America","","C245479","LB","freqGain","Mozilla/5.0 (Windows NT 10.0; Win64; x64) AppleWebKit/537.36 (KHTML, like Gecko) Chrome/83.0.4103.61 Safari/537.36","1.21","","null","","You successfully harvested honey! You earned <b>1 </b>point.","","126","null","1","96","",""
"","html-button-response","259","489714","0.0-3.0-0.126","full","Male","30","United States of America","","C245479","LB","freqGain","Mozilla/5.0 (Windows NT 10.0; Win64; x64) AppleWebKit/537.36 (KHTML, like Gecko) Chrome/83.0.4103.61 Safari/537.36","1.21","","1483","","<img src = 'img/A1-B1-L1-W1.jpg' width = '600'>","1","127","","","","",""
"","html-keyboard-response","260","491718","0.0-3.0-1.126","full","Male","30","United States of America","","C245479","LB","freqGain","Mozilla/5.0 (Windows NT 10.0; Win64; x64) AppleWebKit/537.36 (KHTML, like Gecko) Chrome/83.0.4103.61 Safari/537.36","1.21","","null","","Whew, you avoided being stung! You earned <b>0 </b> points.","","127","null","0","96","",""
"","html-button-response","261","492489","0.0-3.0-0.127","full","Male","30","United States of America","","C245479","LB","freqGain","Mozilla/5.0 (Windows NT 10.0; Win64; x64) AppleWebKit/537.36 (KHTML, like Gecko) Chrome/83.0.4103.61 Safari/537.36","1.21","","769","","<img src = 'img/A1-B0-L0-W1.jpg' width = '600'>","0","128","","","","",""
"","html-keyboard-response","262","494493","0.0-3.0-1.127","full","Male","30","United States of America","","C245479","LB","freqGain","Mozilla/5.0 (Windows NT 10.0; Win64; x64) AppleWebKit/537.36 (KHTML, like Gecko) Chrome/83.0.4103.61 Safari/537.36","1.21","","null","","You successfully harvested honey! You earned <b>1 </b>point.","","128","null","1","97","",""
"","external-html","263","501058","0.0-4.0","full","Male","30","United States of America","","C245479","LB","freqGain","Mozilla/5.0 (Windows NT 10.0; Win64; x64) AppleWebKit/537.36 (KHTML, like Gecko) Chrome/83.0.4103.61 Safari/537.36","1.21","","5147.445000009611","","","","","","","","./pages/testinstr-fg.html",""
"","html-button-response","264","504403","0.0-5.0-0.0","full","Male","30","United States of America","","C245479","LB","freqGain","Mozilla/5.0 (Windows NT 10.0; Win64; x64) AppleWebKit/537.36 (KHTML, like Gecko) Chrome/83.0.4103.61 Safari/537.36","1.21","","3342","","<img src = 'img/A0-B1-L0-W0.jpg' width = '600'>","0","","","","","","1"
"","html-keyboard-response","265","505810","0.0-5.0-1.0","full","Male","30","United States of America","","C245479","LB","freqGain","Mozilla/5.0 (Windows NT 10.0; Win64; x64) AppleWebKit/537.36 (KHTML, like Gecko) Chrome/83.0.4103.61 Safari/537.36","1.21","","null","","","","","null","1","98","","1"
"","html-button-response","266","507311","0.0-5.0-0.1","full","Male","30","United States of America","","C245479","LB","freqGain","Mozilla/5.0 (Windows NT 10.0; Win64; x64) AppleWebKit/537.36 (KHTML, like Gecko) Chrome/83.0.4103.61 Safari/537.36","1.21","","1495","","<img src = 'img/A0-B0-L1-W1.jpg' width = '600'>","0","","","","","","2"
"","html-keyboard-response","267","508716","0.0-5.0-1.1","full","Male","30","United States of America","","C245479","LB","freqGain","Mozilla/5.0 (Windows NT 10.0; Win64; x64) AppleWebKit/537.36 (KHTML, like Gecko) Chrome/83.0.4103.61 Safari/537.36","1.21","","null","","","","","null","1","99","","2"
"","html-button-response","268","509334","0.0-5.0-0.2","full","Male","30","United States of America","","C245479","LB","freqGain","Mozilla/5.0 (Windows NT 10.0; Win64; x64) AppleWebKit/537.36 (KHTML, like Gecko) Chrome/83.0.4103.61 Safari/537.36","1.21","","605","","<img src = 'img/A0-B1-L0-W1.jpg' width = '600'>","0","","","","","","3"
"","html-keyboard-response","269","510737","0.0-5.0-1.2","full","Male","30","United States of America","","C245479","LB","freqGain","Mozilla/5.0 (Windows NT 10.0; Win64; x64) AppleWebKit/537.36 (KHTML, like Gecko) Chrome/83.0.4103.61 Safari/537.36","1.21","","null","","","","","null","1","100","","3"
"","html-button-response","270","512096","0.0-5.0-0.3","full","Male","30","United States of America","","C245479","LB","freqGain","Mozilla/5.0 (Windows NT 10.0; Win64; x64) AppleWebKit/537.36 (KHTML, like Gecko) Chrome/83.0.4103.61 Safari/537.36","1.21","","1354","","<img src = 'img/A1-B1-L1-W0.jpg' width = '600'>","1","","","","","","4"
"","html-keyboard-response","271","513500","0.0-5.0-1.3","full","Male","30","United States of America","","C245479","LB","freqGain","Mozilla/5.0 (Windows NT 10.0; Win64; x64) AppleWebKit/537.36 (KHTML, like Gecko) Chrome/83.0.4103.61 Safari/537.36","1.21","","null","","","","","null","0","100","","4"
"","html-button-response","272","514012","0.0-5.0-0.4","full","Male","30","United States of America","","C245479","LB","freqGain","Mozilla/5.0 (Windows NT 10.0; Win64; x64) AppleWebKit/537.36 (KHTML, like Gecko) Chrome/83.0.4103.61 Safari/537.36","1.21","","504","","<img src = 'img/A1-B0-L1-W0.jpg' width = '600'>","0","","","","","","5"
"","html-keyboard-response","273","515416","0.0-5.0-1.4","full","Male","30","United States of America","","C245479","LB","freqGain","Mozilla/5.0 (Windows NT 10.0; Win64; x64) AppleWebKit/537.36 (KHTML, like Gecko) Chrome/83.0.4103.61 Safari/537.36","1.21","","null","","","","","null","1","101","","5"
"","html-button-response","274","517033","0.0-5.0-0.5","full","Male","30","United States of America","","C245479","LB","freqGain","Mozilla/5.0 (Windows NT 10.0; Win64; x64) AppleWebKit/537.36 (KHTML, like Gecko) Chrome/83.0.4103.61 Safari/537.36","1.21","","1613","","<img src = 'img/A1-B1-L1-W1.jpg' width = '600'>","1","","","","","","6"
"","html-keyboard-response","275","518438","0.0-5.0-1.5","full","Male","30","United States of America","","C245479","LB","freqGain","Mozilla/5.0 (Windows NT 10.0; Win64; x64) AppleWebKit/537.36 (KHTML, like Gecko) Chrome/83.0.4103.61 Safari/537.36","1.21","","null","","","","","null","0","101","","6"
"","html-button-response","276","520105","0.0-5.0-0.6","full","Male","30","United States of America","","C245479","LB","freqGain","Mozilla/5.0 (Windows NT 10.0; Win64; x64) AppleWebKit/537.36 (KHTML, like Gecko) Chrome/83.0.4103.61 Safari/537.36","1.21","","1665","","<img src = 'img/A1-B1-L0-W0.jpg' width = '600'>","0","","","","","","7"
"","html-keyboard-response","277","521508","0.0-5.0-1.6","full","Male","30","United States of America","","C245479","LB","freqGain","Mozilla/5.0 (Windows NT 10.0; Win64; x64) AppleWebKit/537.36 (KHTML, like Gecko) Chrome/83.0.4103.61 Safari/537.36","1.21","","null","","","","","null","1","102","","7"
"","html-button-response","278","522121","0.0-5.0-0.7","full","Male","30","United States of America","","C245479","LB","freqGain","Mozilla/5.0 (Windows NT 10.0; Win64; x64) AppleWebKit/537.36 (KHTML, like Gecko) Chrome/83.0.4103.61 Safari/537.36","1.21","","604","","<img src = 'img/A0-B0-L0-W0.jpg' width = '600'>","0","","","","","","8"
"","html-keyboard-response","279","523525","0.0-5.0-1.7","full","Male","30","United States of America","","C245479","LB","freqGain","Mozilla/5.0 (Windows NT 10.0; Win64; x64) AppleWebKit/537.36 (KHTML, like Gecko) Chrome/83.0.4103.61 Safari/537.36","1.21","","null","","","","","null","1","103","","8"
"","html-button-response","280","524979","0.0-5.0-0.8","full","Male","30","United States of America","","C245479","LB","freqGain","Mozilla/5.0 (Windows NT 10.0; Win64; x64) AppleWebKit/537.36 (KHTML, like Gecko) Chrome/83.0.4103.61 Safari/537.36","1.21","","1448","","<img src = 'img/A0-B1-L1-W1.jpg' width = '600'>","1","","","","","","9"
"","html-keyboard-response","281","526385","0.0-5.0-1.8","full","Male","30","United States of America","","C245479","LB","freqGain","Mozilla/5.0 (Windows NT 10.0; Win64; x64) AppleWebKit/537.36 (KHTML, like Gecko) Chrome/83.0.4103.61 Safari/537.36","1.21","","null","","","","","null","0","103","","9"
"","html-button-response","282","527285","0.0-5.0-0.9","full","Male","30","United States of America","","C245479","LB","freqGain","Mozilla/5.0 (Windows NT 10.0; Win64; x64) AppleWebKit/537.36 (KHTML, like Gecko) Chrome/83.0.4103.61 Safari/537.36","1.21","","895","","<img src = 'img/A1-B0-L0-W0.jpg' width = '600'>","0","","","","","","10"
