"success","trial_type","trial_index","time_elapsed","internal_node_id","feedback","gender","age","country","email","turkcode","relevantDim","condition","browserinfo","bonus","view_history","rt","responses","stimulus","button_pressed","i","key_press","earnedThis","earnedCumulative","url","k"
"true","fullscreen","0","7249","0.0-0.0","partial","Female","40","United States of America","","C766687","LA","freqGain","Mozilla/5.0 (Macintosh; Intel Mac OS X 10_11_6) AppleWebKit/537.36 (KHTML, like Gecko) Chrome/83.0.4103.61 Safari/537.36","1.52","","","","","","","","","","",""
"","instructions","1","87693","0.0-1.0-0.0","partial","Female","40","United States of America","","C766687","LA","freqGain","Mozilla/5.0 (Macintosh; Intel Mac OS X 10_11_6) AppleWebKit/537.36 (KHTML, like Gecko) Chrome/83.0.4103.61 Safari/537.36","1.52","[{""page_index"":0,""viewing_time"":12685},{""page_index"":1,""viewing_time"":33831},{""page_index"":2,""viewing_time"":33926}]","80443","","","","","","","","",""
"","survey-html-form","2","127872","0.0-1.0-1.0","partial","Female","40","United States of America","","C766687","LA","freqGain","Mozilla/5.0 (Macintosh; Intel Mac OS X 10_11_6) AppleWebKit/537.36 (KHTML, like Gecko) Chrome/83.0.4103.61 Safari/537.36","1.52","","40178.27499999839","{""legs"":""checked"",""body"":""checked"",""wings"":""checked"",""antennae"":""checked"",""change"":""no"",""telldangerous"":""feature"",""avoidinfo"":""noInfo""}","","","","","","","",""
"","html-button-response","3","130143","0.0-2.0","partial","Female","40","United States of America","","C766687","LA","freqGain","Mozilla/5.0 (Macintosh; Intel Mac OS X 10_11_6) AppleWebKit/537.36 (KHTML, like Gecko) Chrome/83.0.4103.61 Safari/537.36","1.52","","2270","","<p>Well done! This is now the last page of instructions.</p> <p>You're going to start experiment now.</p>","0","","","","","",""
"","html-button-response","4","145613","0.0-3.0-0.0","partial","Female","40","United States of America","","C766687","LA","freqGain","Mozilla/5.0 (Macintosh; Intel Mac OS X 10_11_6) AppleWebKit/537.36 (KHTML, like Gecko) Chrome/83.0.4103.61 Safari/537.36","1.52","","15467","","<img src = 'img/A0-B1-L0-W0.jpg' width = '600'>","0","1","","","","",""
"","html-keyboard-response","5","147617","0.0-3.0-1.0","partial","Female","40","United States of America","","C766687","LA","freqGain","Mozilla/5.0 (Macintosh; Intel Mac OS X 10_11_6) AppleWebKit/537.36 (KHTML, like Gecko) Chrome/83.0.4103.61 Safari/537.36","1.52","","null","","Ouch, you were stung! You lost <b>-1 </b>point.","","1","null","-1","49","",""
"","html-button-response","6","162012","0.0-3.0-0.1","partial","Female","40","United States of America","","C766687","LA","freqGain","Mozilla/5.0 (Macintosh; Intel Mac OS X 10_11_6) AppleWebKit/537.36 (KHTML, like Gecko) Chrome/83.0.4103.61 Safari/537.36","1.52","","14392","","<img src = 'img/A1-B0-L1-W0.jpg' width = '600'>","0","2","","","","",""
"","html-keyboard-response","7","164013","0.0-3.0-1.1","partial","Female","40","United States of America","","C766687","LA","freqGain","Mozilla/5.0 (Macintosh; Intel Mac OS X 10_11_6) AppleWebKit/537.36 (KHTML, like Gecko) Chrome/83.0.4103.61 Safari/537.36","1.52","","null","","You successfully harvested honey! You earned <b>3 </b>points.","","2","null","3","52","",""
"","html-button-response","8","264876","0.0-3.0-0.2","partial","Female","40","United States of America","","C766687","LA","freqGain","Mozilla/5.0 (Macintosh; Intel Mac OS X 10_11_6) AppleWebKit/537.36 (KHTML, like Gecko) Chrome/83.0.4103.61 Safari/537.36","1.52","","100861","","<img src = 'img/A1-B1-L0-W0.jpg' width = '600'>","0","3","","","","",""
"","html-keyboard-response","9","266878","0.0-3.0-1.2","partial","Female","40","United States of America","","C766687","LA","freqGain","Mozilla/5.0 (Macintosh; Intel Mac OS X 10_11_6) AppleWebKit/537.36 (KHTML, like Gecko) Chrome/83.0.4103.61 Safari/537.36","1.52","","null","","Ouch, you were stung! You lost <b>-1 </b>point.","","3","null","-1","51","",""
"","html-button-response","10","289253","0.0-3.0-0.3","partial","Female","40","United States of America","","C766687","LA","freqGain","Mozilla/5.0 (Macintosh; Intel Mac OS X 10_11_6) AppleWebKit/537.36 (KHTML, like Gecko) Chrome/83.0.4103.61 Safari/537.36","1.52","","22373","","<img src = 'img/A0-B0-L0-W0.jpg' width = '600'>","0","4","","","","",""
"","html-keyboard-response","11","291254","0.0-3.0-1.3","partial","Female","40","United States of America","","C766687","LA","freqGain","Mozilla/5.0 (Macintosh; Intel Mac OS X 10_11_6) AppleWebKit/537.36 (KHTML, like Gecko) Chrome/83.0.4103.61 Safari/537.36","1.52","","null","","Ouch, you were stung! You lost <b>-1 </b>point.","","4","null","-1","50","",""
"","html-button-response","12","311560","0.0-3.0-0.4","partial","Female","40","United States of America","","C766687","LA","freqGain","Mozilla/5.0 (Macintosh; Intel Mac OS X 10_11_6) AppleWebKit/537.36 (KHTML, like Gecko) Chrome/83.0.4103.61 Safari/537.36","1.52","","20305","","<img src = 'img/A1-B0-L0-W1.jpg' width = '600'>","0","5","","","","",""
"","html-keyboard-response","13","313562","0.0-3.0-1.4","partial","Female","40","United States of America","","C766687","LA","freqGain","Mozilla/5.0 (Macintosh; Intel Mac OS X 10_11_6) AppleWebKit/537.36 (KHTML, like Gecko) Chrome/83.0.4103.61 Safari/537.36","1.52","","null","","Ouch, you were stung! You lost <b>-1 </b>point.","","5","null","-1","49","",""
"","html-button-response","14","340207","0.0-3.0-0.5","partial","Female","40","United States of America","","C766687","LA","freqGain","Mozilla/5.0 (Macintosh; Intel Mac OS X 10_11_6) AppleWebKit/537.36 (KHTML, like Gecko) Chrome/83.0.4103.61 Safari/537.36","1.52","","26644","","<img src = 'img/A1-B1-L0-W1.jpg' width = '600'>","0","6","","","","",""
"","html-keyboard-response","15","342208","0.0-3.0-1.5","partial","Female","40","United States of America","","C766687","LA","freqGain","Mozilla/5.0 (Macintosh; Intel Mac OS X 10_11_6) AppleWebKit/537.36 (KHTML, like Gecko) Chrome/83.0.4103.61 Safari/537.36","1.52","","null","","Ouch, you were stung! You lost <b>-1 </b>point.","","6","null","-1","48","",""
"","html-button-response","16","389038","0.0-3.0-0.6","partial","Female","40","United States of America","","C766687","LA","freqGain","Mozilla/5.0 (Macintosh; Intel Mac OS X 10_11_6) AppleWebKit/537.36 (KHTML, like Gecko) Chrome/83.0.4103.61 Safari/537.36","1.52","","46829","","<img src = 'img/A1-B1-L1-W1.jpg' width = '600'>","0","7","","","","",""
"","html-keyboard-response","17","391039","0.0-3.0-1.6","partial","Female","40","United States of America","","C766687","LA","freqGain","Mozilla/5.0 (Macintosh; Intel Mac OS X 10_11_6) AppleWebKit/537.36 (KHTML, like Gecko) Chrome/83.0.4103.61 Safari/537.36","1.52","","null","","You successfully harvested honey! You earned <b>3 </b>points.","","7","null","3","51","",""
"","html-button-response","18","426983","0.0-3.0-0.7","partial","Female","40","United States of America","","C766687","LA","freqGain","Mozilla/5.0 (Macintosh; Intel Mac OS X 10_11_6) AppleWebKit/537.36 (KHTML, like Gecko) Chrome/83.0.4103.61 Safari/537.36","1.52","","35942","","<img src = 'img/A0-B1-L0-W1.jpg' width = '600'>","0","8","","","","",""
"","html-keyboard-response","19","428986","0.0-3.0-1.7","partial","Female","40","United States of America","","C766687","LA","freqGain","Mozilla/5.0 (Macintosh; Intel Mac OS X 10_11_6) AppleWebKit/537.36 (KHTML, like Gecko) Chrome/83.0.4103.61 Safari/537.36","1.52","","null","","Ouch, you were stung! You lost <b>-1 </b>point.","","8","null","-1","50","",""
"","html-button-response","20","431332","0.0-3.0-0.8","partial","Female","40","United States of America","","C766687","LA","freqGain","Mozilla/5.0 (Macintosh; Intel Mac OS X 10_11_6) AppleWebKit/537.36 (KHTML, like Gecko) Chrome/83.0.4103.61 Safari/537.36","1.52","","2345","","<img src = 'img/A0-B1-L1-W0.jpg' width = '600'>","0","9","","","","",""
"","html-keyboard-response","21","433338","0.0-3.0-1.8","partial","Female","40","United States of America","","C766687","LA","freqGain","Mozilla/5.0 (Macintosh; Intel Mac OS X 10_11_6) AppleWebKit/537.36 (KHTML, like Gecko) Chrome/83.0.4103.61 Safari/537.36","1.52","","null","","Ouch, you were stung! You lost <b>-1 </b>point.","","9","null","-1","49","",""
"","html-button-response","22","457036","0.0-3.0-0.9","partial","Female","40","United States of America","","C766687","LA","freqGain","Mozilla/5.0 (Macintosh; Intel Mac OS X 10_11_6) AppleWebKit/537.36 (KHTML, like Gecko) Chrome/83.0.4103.61 Safari/537.36","1.52","","23697","","<img src = 'img/A0-B0-L0-W1.jpg' width = '600'>","0","10","","","","",""
"","html-keyboard-response","23","459038","0.0-3.0-1.9","partial","Female","40","United States of America","","C766687","LA","freqGain","Mozilla/5.0 (Macintosh; Intel Mac OS X 10_11_6) AppleWebKit/537.36 (KHTML, like Gecko) Chrome/83.0.4103.61 Safari/537.36","1.52","","null","","Ouch, you were stung! You lost <b>-1 </b>point.","","10","null","-1","48","",""
"","html-button-response","24","463536","0.0-3.0-0.10","partial","Female","40","United States of America","","C766687","LA","freqGain","Mozilla/5.0 (Macintosh; Intel Mac OS X 10_11_6) AppleWebKit/537.36 (KHTML, like Gecko) Chrome/83.0.4103.61 Safari/537.36","1.52","","4497","","<img src = 'img/A0-B0-L1-W1.jpg' width = '600'>","0","11","","","","",""
"","html-keyboard-response","25","465542","0.0-3.0-1.10","partial","Female","40","United States of America","","C766687","LA","freqGain","Mozilla/5.0 (Macintosh; Intel Mac OS X 10_11_6) AppleWebKit/537.36 (KHTML, like Gecko) Chrome/83.0.4103.61 Safari/537.36","1.52","","null","","Ouch, you were stung! You lost <b>-1 </b>point.","","11","null","-1","47","",""
"","html-button-response","26","472087","0.0-3.0-0.11","partial","Female","40","United States of America","","C766687","LA","freqGain","Mozilla/5.0 (Macintosh; Intel Mac OS X 10_11_6) AppleWebKit/537.36 (KHTML, like Gecko) Chrome/83.0.4103.61 Safari/537.36","1.52","","6543","","<img src = 'img/A1-B0-L1-W1.jpg' width = '600'>","0","12","","","","",""
"","html-keyboard-response","27","474090","0.0-3.0-1.11","partial","Female","40","United States of America","","C766687","LA","freqGain","Mozilla/5.0 (Macintosh; Intel Mac OS X 10_11_6) AppleWebKit/537.36 (KHTML, like Gecko) Chrome/83.0.4103.61 Safari/537.36","1.52","","null","","You successfully harvested honey! You earned <b>3 </b>points.","","12","null","3","50","",""
"","html-button-response","28","486440","0.0-3.0-0.12","partial","Female","40","United States of America","","C766687","LA","freqGain","Mozilla/5.0 (Macintosh; Intel Mac OS X 10_11_6) AppleWebKit/537.36 (KHTML, like Gecko) Chrome/83.0.4103.61 Safari/537.36","1.52","","12348","","<img src = 'img/A1-B1-L1-W0.jpg' width = '600'>","0","13","","","","",""
"","html-keyboard-response","29","488440","0.0-3.0-1.12","partial","Female","40","United States of America","","C766687","LA","freqGain","Mozilla/5.0 (Macintosh; Intel Mac OS X 10_11_6) AppleWebKit/537.36 (KHTML, like Gecko) Chrome/83.0.4103.61 Safari/537.36","1.52","","null","","You successfully harvested honey! You earned <b>3 </b>points.","","13","null","3","53","",""
"","html-button-response","30","493350","0.0-3.0-0.13","partial","Female","40","United States of America","","C766687","LA","freqGain","Mozilla/5.0 (Macintosh; Intel Mac OS X 10_11_6) AppleWebKit/537.36 (KHTML, like Gecko) Chrome/83.0.4103.61 Safari/537.36","1.52","","4909","","<img src = 'img/A0-B1-L1-W1.jpg' width = '600'>","0","14","","","","",""
"","html-keyboard-response","31","495351","0.0-3.0-1.13","partial","Female","40","United States of America","","C766687","LA","freqGain","Mozilla/5.0 (Macintosh; Intel Mac OS X 10_11_6) AppleWebKit/537.36 (KHTML, like Gecko) Chrome/83.0.4103.61 Safari/537.36","1.52","","null","","Ouch, you were stung! You lost <b>-1 </b>point.","","14","null","-1","52","",""
"","html-button-response","32","522128","0.0-3.0-0.14","partial","Female","40","United States of America","","C766687","LA","freqGain","Mozilla/5.0 (Macintosh; Intel Mac OS X 10_11_6) AppleWebKit/537.36 (KHTML, like Gecko) Chrome/83.0.4103.61 Safari/537.36","1.52","","26776","","<img src = 'img/A0-B0-L1-W0.jpg' width = '600'>","0","15","","","","",""
"","html-keyboard-response","33","524133","0.0-3.0-1.14","partial","Female","40","United States of America","","C766687","LA","freqGain","Mozilla/5.0 (Macintosh; Intel Mac OS X 10_11_6) AppleWebKit/537.36 (KHTML, like Gecko) Chrome/83.0.4103.61 Safari/537.36","1.52","","null","","Ouch, you were stung! You lost <b>-1 </b>point.","","15","null","-1","51","",""
"","html-button-response","34","537389","0.0-3.0-0.15","partial","Female","40","United States of America","","C766687","LA","freqGain","Mozilla/5.0 (Macintosh; Intel Mac OS X 10_11_6) AppleWebKit/537.36 (KHTML, like Gecko) Chrome/83.0.4103.61 Safari/537.36","1.52","","13254","","<img src = 'img/A1-B0-L0-W0.jpg' width = '600'>","0","16","","","","",""
"","html-keyboard-response","35","539390","0.0-3.0-1.15","partial","Female","40","United States of America","","C766687","LA","freqGain","Mozilla/5.0 (Macintosh; Intel Mac OS X 10_11_6) AppleWebKit/537.36 (KHTML, like Gecko) Chrome/83.0.4103.61 Safari/537.36","1.52","","null","","Ouch, you were stung! You lost <b>-1 </b>point.","","16","null","-1","50","",""
"","html-button-response","36","547885","0.0-3.0-0.16","partial","Female","40","United States of America","","C766687","LA","freqGain","Mozilla/5.0 (Macintosh; Intel Mac OS X 10_11_6) AppleWebKit/537.36 (KHTML, like Gecko) Chrome/83.0.4103.61 Safari/537.36","1.52","","8494","","<img src = 'img/A0-B0-L1-W0.jpg' width = '600'>","0","17","","","","",""
"","html-keyboard-response","37","549889","0.0-3.0-1.16","partial","Female","40","United States of America","","C766687","LA","freqGain","Mozilla/5.0 (Macintosh; Intel Mac OS X 10_11_6) AppleWebKit/537.36 (KHTML, like Gecko) Chrome/83.0.4103.61 Safari/537.36","1.52","","null","","Ouch, you were stung! You lost <b>-1 </b>point.","","17","null","-1","49","",""
"","html-button-response","38","568833","0.0-3.0-0.17","partial","Female","40","United States of America","","C766687","LA","freqGain","Mozilla/5.0 (Macintosh; Intel Mac OS X 10_11_6) AppleWebKit/537.36 (KHTML, like Gecko) Chrome/83.0.4103.61 Safari/537.36","1.52","","18943","","<img src = 'img/A1-B0-L0-W0.jpg' width = '600'>","1","18","","","","",""
"","html-keyboard-response","39","570835","0.0-3.0-1.17","partial","Female","40","United States of America","","C766687","LA","freqGain","Mozilla/5.0 (Macintosh; Intel Mac OS X 10_11_6) AppleWebKit/537.36 (KHTML, like Gecko) Chrome/83.0.4103.61 Safari/537.36","1.52","","null","","You avoided this hive. You earned <b>0 </b>points.","","18","null","0","49","",""
"","html-button-response","40","580620","0.0-3.0-0.18","partial","Female","40","United States of America","","C766687","LA","freqGain","Mozilla/5.0 (Macintosh; Intel Mac OS X 10_11_6) AppleWebKit/537.36 (KHTML, like Gecko) Chrome/83.0.4103.61 Safari/537.36","1.52","","9784","","<img src = 'img/A1-B1-L0-W1.jpg' width = '600'>","0","19","","","","",""
"","html-keyboard-response","41","582625","0.0-3.0-1.18","partial","Female","40","United States of America","","C766687","LA","freqGain","Mozilla/5.0 (Macintosh; Intel Mac OS X 10_11_6) AppleWebKit/537.36 (KHTML, like Gecko) Chrome/83.0.4103.61 Safari/537.36","1.52","","null","","Ouch, you were stung! You lost <b>-1 </b>point.","","19","null","-1","48","",""
"","html-button-response","42","593553","0.0-3.0-0.19","partial","Female","40","United States of America","","C766687","LA","freqGain","Mozilla/5.0 (Macintosh; Intel Mac OS X 10_11_6) AppleWebKit/537.36 (KHTML, like Gecko) Chrome/83.0.4103.61 Safari/537.36","1.52","","10926","","<img src = 'img/A0-B1-L0-W1.jpg' width = '600'>","1","20","","","","",""
"","html-keyboard-response","43","595554","0.0-3.0-1.19","partial","Female","40","United States of America","","C766687","LA","freqGain","Mozilla/5.0 (Macintosh; Intel Mac OS X 10_11_6) AppleWebKit/537.36 (KHTML, like Gecko) Chrome/83.0.4103.61 Safari/537.36","1.52","","null","","You avoided this hive. You earned <b>0 </b>points.","","20","null","0","48","",""
"","html-button-response","44","604921","0.0-3.0-0.20","partial","Female","40","United States of America","","C766687","LA","freqGain","Mozilla/5.0 (Macintosh; Intel Mac OS X 10_11_6) AppleWebKit/537.36 (KHTML, like Gecko) Chrome/83.0.4103.61 Safari/537.36","1.52","","9365","","<img src = 'img/A0-B0-L0-W0.jpg' width = '600'>","1","21","","","","",""
"","html-keyboard-response","45","606925","0.0-3.0-1.20","partial","Female","40","United States of America","","C766687","LA","freqGain","Mozilla/5.0 (Macintosh; Intel Mac OS X 10_11_6) AppleWebKit/537.36 (KHTML, like Gecko) Chrome/83.0.4103.61 Safari/537.36","1.52","","null","","You avoided this hive. You earned <b>0 </b>points.","","21","null","0","48","",""
"","html-button-response","46","615822","0.0-3.0-0.21","partial","Female","40","United States of America","","C766687","LA","freqGain","Mozilla/5.0 (Macintosh; Intel Mac OS X 10_11_6) AppleWebKit/537.36 (KHTML, like Gecko) Chrome/83.0.4103.61 Safari/537.36","1.52","","8896","","<img src = 'img/A1-B1-L1-W0.jpg' width = '600'>","0","22","","","","",""
"","html-keyboard-response","47","617827","0.0-3.0-1.21","partial","Female","40","United States of America","","C766687","LA","freqGain","Mozilla/5.0 (Macintosh; Intel Mac OS X 10_11_6) AppleWebKit/537.36 (KHTML, like Gecko) Chrome/83.0.4103.61 Safari/537.36","1.52","","null","","You successfully harvested honey! You earned <b>3 </b>points.","","22","null","3","51","",""
"","html-button-response","48","625903","0.0-3.0-0.22","partial","Female","40","United States of America","","C766687","LA","freqGain","Mozilla/5.0 (Macintosh; Intel Mac OS X 10_11_6) AppleWebKit/537.36 (KHTML, like Gecko) Chrome/83.0.4103.61 Safari/537.36","1.52","","8075","","<img src = 'img/A1-B0-L1-W1.jpg' width = '600'>","0","23","","","","",""
"","html-keyboard-response","49","627904","0.0-3.0-1.22","partial","Female","40","United States of America","","C766687","LA","freqGain","Mozilla/5.0 (Macintosh; Intel Mac OS X 10_11_6) AppleWebKit/537.36 (KHTML, like Gecko) Chrome/83.0.4103.61 Safari/537.36","1.52","","null","","You successfully harvested honey! You earned <b>3 </b>points.","","23","null","3","54","",""
"","html-button-response","50","642545","0.0-3.0-0.23","partial","Female","40","United States of America","","C766687","LA","freqGain","Mozilla/5.0 (Macintosh; Intel Mac OS X 10_11_6) AppleWebKit/537.36 (KHTML, like Gecko) Chrome/83.0.4103.61 Safari/537.36","1.52","","14640","","<img src = 'img/A0-B1-L0-W0.jpg' width = '600'>","1","24","","","","",""
"","html-keyboard-response","51","644546","0.0-3.0-1.23","partial","Female","40","United States of America","","C766687","LA","freqGain","Mozilla/5.0 (Macintosh; Intel Mac OS X 10_11_6) AppleWebKit/537.36 (KHTML, like Gecko) Chrome/83.0.4103.61 Safari/537.36","1.52","","null","","You avoided this hive. You earned <b>0 </b>points.","","24","null","0","54","",""
"","html-button-response","52","647748","0.0-3.0-0.24","partial","Female","40","United States of America","","C766687","LA","freqGain","Mozilla/5.0 (Macintosh; Intel Mac OS X 10_11_6) AppleWebKit/537.36 (KHTML, like Gecko) Chrome/83.0.4103.61 Safari/537.36","1.52","","3200","","<img src = 'img/A1-B0-L0-W1.jpg' width = '600'>","1","25","","","","",""
"","html-keyboard-response","53","649752","0.0-3.0-1.24","partial","Female","40","United States of America","","C766687","LA","freqGain","Mozilla/5.0 (Macintosh; Intel Mac OS X 10_11_6) AppleWebKit/537.36 (KHTML, like Gecko) Chrome/83.0.4103.61 Safari/537.36","1.52","","null","","You avoided this hive. You earned <b>0 </b>points.","","25","null","0","54","",""
"","html-button-response","54","656326","0.0-3.0-0.25","partial","Female","40","United States of America","","C766687","LA","freqGain","Mozilla/5.0 (Macintosh; Intel Mac OS X 10_11_6) AppleWebKit/537.36 (KHTML, like Gecko) Chrome/83.0.4103.61 Safari/537.36","1.52","","6573","","<img src = 'img/A1-B1-L1-W1.jpg' width = '600'>","0","26","","","","",""
"","html-keyboard-response","55","658331","0.0-3.0-1.25","partial","Female","40","United States of America","","C766687","LA","freqGain","Mozilla/5.0 (Macintosh; Intel Mac OS X 10_11_6) AppleWebKit/537.36 (KHTML, like Gecko) Chrome/83.0.4103.61 Safari/537.36","1.52","","null","","You successfully harvested honey! You earned <b>3 </b>points.","","26","null","3","57","",""
"","html-button-response","56","665332","0.0-3.0-0.26","partial","Female","40","United States of America","","C766687","LA","freqGain","Mozilla/5.0 (Macintosh; Intel Mac OS X 10_11_6) AppleWebKit/537.36 (KHTML, like Gecko) Chrome/83.0.4103.61 Safari/537.36","1.52","","6999","","<img src = 'img/A0-B1-L1-W0.jpg' width = '600'>","0","27","","","","",""
"","html-keyboard-response","57","667335","0.0-3.0-1.26","partial","Female","40","United States of America","","C766687","LA","freqGain","Mozilla/5.0 (Macintosh; Intel Mac OS X 10_11_6) AppleWebKit/537.36 (KHTML, like Gecko) Chrome/83.0.4103.61 Safari/537.36","1.52","","null","","Ouch, you were stung! You lost <b>-1 </b>point.","","27","null","-1","56","",""
"","html-button-response","58","670354","0.0-3.0-0.27","partial","Female","40","United States of America","","C766687","LA","freqGain","Mozilla/5.0 (Macintosh; Intel Mac OS X 10_11_6) AppleWebKit/537.36 (KHTML, like Gecko) Chrome/83.0.4103.61 Safari/537.36","1.52","","3018","","<img src = 'img/A0-B0-L1-W1.jpg' width = '600'>","0","28","","","","",""
"","html-keyboard-response","59","672357","0.0-3.0-1.27","partial","Female","40","United States of America","","C766687","LA","freqGain","Mozilla/5.0 (Macintosh; Intel Mac OS X 10_11_6) AppleWebKit/537.36 (KHTML, like Gecko) Chrome/83.0.4103.61 Safari/537.36","1.52","","null","","Ouch, you were stung! You lost <b>-1 </b>point.","","28","null","-1","55","",""
"","html-button-response","60","679121","0.0-3.0-0.28","partial","Female","40","United States of America","","C766687","LA","freqGain","Mozilla/5.0 (Macintosh; Intel Mac OS X 10_11_6) AppleWebKit/537.36 (KHTML, like Gecko) Chrome/83.0.4103.61 Safari/537.36","1.52","","6762","","<img src = 'img/A0-B1-L1-W1.jpg' width = '600'>","0","29","","","","",""
"","html-keyboard-response","61","681122","0.0-3.0-1.28","partial","Female","40","United States of America","","C766687","LA","freqGain","Mozilla/5.0 (Macintosh; Intel Mac OS X 10_11_6) AppleWebKit/537.36 (KHTML, like Gecko) Chrome/83.0.4103.61 Safari/537.36","1.52","","null","","Ouch, you were stung! You lost <b>-1 </b>point.","","29","null","-1","54","",""
"","html-button-response","62","686018","0.0-3.0-0.29","partial","Female","40","United States of America","","C766687","LA","freqGain","Mozilla/5.0 (Macintosh; Intel Mac OS X 10_11_6) AppleWebKit/537.36 (KHTML, like Gecko) Chrome/83.0.4103.61 Safari/537.36","1.52","","4894","","<img src = 'img/A0-B0-L0-W1.jpg' width = '600'>","1","30","","","","",""
"","html-keyboard-response","63","688020","0.0-3.0-1.29","partial","Female","40","United States of America","","C766687","LA","freqGain","Mozilla/5.0 (Macintosh; Intel Mac OS X 10_11_6) AppleWebKit/537.36 (KHTML, like Gecko) Chrome/83.0.4103.61 Safari/537.36","1.52","","null","","You avoided this hive. You earned <b>0 </b>points.","","30","null","0","54","",""
"","html-button-response","64","693267","0.0-3.0-0.30","partial","Female","40","United States of America","","C766687","LA","freqGain","Mozilla/5.0 (Macintosh; Intel Mac OS X 10_11_6) AppleWebKit/537.36 (KHTML, like Gecko) Chrome/83.0.4103.61 Safari/537.36","1.52","","5245","","<img src = 'img/A1-B1-L0-W0.jpg' width = '600'>","1","31","","","","",""
"","html-keyboard-response","65","695268","0.0-3.0-1.30","partial","Female","40","United States of America","","C766687","LA","freqGain","Mozilla/5.0 (Macintosh; Intel Mac OS X 10_11_6) AppleWebKit/537.36 (KHTML, like Gecko) Chrome/83.0.4103.61 Safari/537.36","1.52","","null","","You avoided this hive. You earned <b>0 </b>points.","","31","null","0","54","",""
"","html-button-response","66","700629","0.0-3.0-0.31","partial","Female","40","United States of America","","C766687","LA","freqGain","Mozilla/5.0 (Macintosh; Intel Mac OS X 10_11_6) AppleWebKit/537.36 (KHTML, like Gecko) Chrome/83.0.4103.61 Safari/537.36","1.52","","5360","","<img src = 'img/A1-B0-L1-W0.jpg' width = '600'>","0","32","","","","",""
"","html-keyboard-response","67","702634","0.0-3.0-1.31","partial","Female","40","United States of America","","C766687","LA","freqGain","Mozilla/5.0 (Macintosh; Intel Mac OS X 10_11_6) AppleWebKit/537.36 (KHTML, like Gecko) Chrome/83.0.4103.61 Safari/537.36","1.52","","null","","You successfully harvested honey! You earned <b>3 </b>points.","","32","null","3","57","",""
"","html-button-response","68","705201","0.0-3.0-0.32","partial","Female","40","United States of America","","C766687","LA","freqGain","Mozilla/5.0 (Macintosh; Intel Mac OS X 10_11_6) AppleWebKit/537.36 (KHTML, like Gecko) Chrome/83.0.4103.61 Safari/537.36","1.52","","2566","","<img src = 'img/A0-B0-L0-W1.jpg' width = '600'>","1","33","","","","",""
"","html-keyboard-response","69","707209","0.0-3.0-1.32","partial","Female","40","United States of America","","C766687","LA","freqGain","Mozilla/5.0 (Macintosh; Intel Mac OS X 10_11_6) AppleWebKit/537.36 (KHTML, like Gecko) Chrome/83.0.4103.61 Safari/537.36","1.52","","null","","You avoided this hive. You earned <b>0 </b>points.","","33","null","0","57","",""
"","html-button-response","70","710350","0.0-3.0-0.33","partial","Female","40","United States of America","","C766687","LA","freqGain","Mozilla/5.0 (Macintosh; Intel Mac OS X 10_11_6) AppleWebKit/537.36 (KHTML, like Gecko) Chrome/83.0.4103.61 Safari/537.36","1.52","","3139","","<img src = 'img/A1-B1-L1-W1.jpg' width = '600'>","0","34","","","","",""
"","html-keyboard-response","71","712351","0.0-3.0-1.33","partial","Female","40","United States of America","","C766687","LA","freqGain","Mozilla/5.0 (Macintosh; Intel Mac OS X 10_11_6) AppleWebKit/537.36 (KHTML, like Gecko) Chrome/83.0.4103.61 Safari/537.36","1.52","","null","","You successfully harvested honey! You earned <b>3 </b>points.","","34","null","3","60","",""
"","html-button-response","72","715098","0.0-3.0-0.34","partial","Female","40","United States of America","","C766687","LA","freqGain","Mozilla/5.0 (Macintosh; Intel Mac OS X 10_11_6) AppleWebKit/537.36 (KHTML, like Gecko) Chrome/83.0.4103.61 Safari/537.36","1.52","","2746","","<img src = 'img/A1-B1-L0-W0.jpg' width = '600'>","0","35","","","","",""
"","html-keyboard-response","73","717102","0.0-3.0-1.34","partial","Female","40","United States of America","","C766687","LA","freqGain","Mozilla/5.0 (Macintosh; Intel Mac OS X 10_11_6) AppleWebKit/537.36 (KHTML, like Gecko) Chrome/83.0.4103.61 Safari/537.36","1.52","","null","","Ouch, you were stung! You lost <b>-1 </b>point.","","35","null","-1","59","",""
"","html-button-response","74","720100","0.0-3.0-0.35","partial","Female","40","United States of America","","C766687","LA","freqGain","Mozilla/5.0 (Macintosh; Intel Mac OS X 10_11_6) AppleWebKit/537.36 (KHTML, like Gecko) Chrome/83.0.4103.61 Safari/537.36","1.52","","2997","","<img src = 'img/A1-B0-L0-W0.jpg' width = '600'>","1","36","","","","",""
"","html-keyboard-response","75","722106","0.0-3.0-1.35","partial","Female","40","United States of America","","C766687","LA","freqGain","Mozilla/5.0 (Macintosh; Intel Mac OS X 10_11_6) AppleWebKit/537.36 (KHTML, like Gecko) Chrome/83.0.4103.61 Safari/537.36","1.52","","null","","You avoided this hive. You earned <b>0 </b>points.","","36","null","0","59","",""
"","html-button-response","76","727244","0.0-3.0-0.36","partial","Female","40","United States of America","","C766687","LA","freqGain","Mozilla/5.0 (Macintosh; Intel Mac OS X 10_11_6) AppleWebKit/537.36 (KHTML, like Gecko) Chrome/83.0.4103.61 Safari/537.36","1.52","","5136","","<img src = 'img/A1-B0-L1-W1.jpg' width = '600'>","0","37","","","","",""
"","html-keyboard-response","77","729246","0.0-3.0-1.36","partial","Female","40","United States of America","","C766687","LA","freqGain","Mozilla/5.0 (Macintosh; Intel Mac OS X 10_11_6) AppleWebKit/537.36 (KHTML, like Gecko) Chrome/83.0.4103.61 Safari/537.36","1.52","","null","","You successfully harvested honey! You earned <b>3 </b>points.","","37","null","3","62","",""
"","html-button-response","78","734712","0.0-3.0-0.37","partial","Female","40","United States of America","","C766687","LA","freqGain","Mozilla/5.0 (Macintosh; Intel Mac OS X 10_11_6) AppleWebKit/537.36 (KHTML, like Gecko) Chrome/83.0.4103.61 Safari/537.36","1.52","","5464","","<img src = 'img/A0-B1-L1-W1.jpg' width = '600'>","1","38","","","","",""
"","html-keyboard-response","79","736714","0.0-3.0-1.37","partial","Female","40","United States of America","","C766687","LA","freqGain","Mozilla/5.0 (Macintosh; Intel Mac OS X 10_11_6) AppleWebKit/537.36 (KHTML, like Gecko) Chrome/83.0.4103.61 Safari/537.36","1.52","","null","","You avoided this hive. You earned <b>0 </b>points.","","38","null","0","62","",""
"","html-button-response","80","738418","0.0-3.0-0.38","partial","Female","40","United States of America","","C766687","LA","freqGain","Mozilla/5.0 (Macintosh; Intel Mac OS X 10_11_6) AppleWebKit/537.36 (KHTML, like Gecko) Chrome/83.0.4103.61 Safari/537.36","1.52","","1702","","<img src = 'img/A0-B0-L1-W0.jpg' width = '600'>","1","39","","","","",""
"","html-keyboard-response","81","740420","0.0-3.0-1.38","partial","Female","40","United States of America","","C766687","LA","freqGain","Mozilla/5.0 (Macintosh; Intel Mac OS X 10_11_6) AppleWebKit/537.36 (KHTML, like Gecko) Chrome/83.0.4103.61 Safari/537.36","1.52","","null","","You avoided this hive. You earned <b>0 </b>points.","","39","null","0","62","",""
"","html-button-response","82","749860","0.0-3.0-0.39","partial","Female","40","United States of America","","C766687","LA","freqGain","Mozilla/5.0 (Macintosh; Intel Mac OS X 10_11_6) AppleWebKit/537.36 (KHTML, like Gecko) Chrome/83.0.4103.61 Safari/537.36","1.52","","9439","","<img src = 'img/A1-B1-L0-W1.jpg' width = '600'>","1","40","","","","",""
"","html-keyboard-response","83","751864","0.0-3.0-1.39","partial","Female","40","United States of America","","C766687","LA","freqGain","Mozilla/5.0 (Macintosh; Intel Mac OS X 10_11_6) AppleWebKit/537.36 (KHTML, like Gecko) Chrome/83.0.4103.61 Safari/537.36","1.52","","null","","You avoided this hive. You earned <b>0 </b>points.","","40","null","0","62","",""
"","html-button-response","84","757189","0.0-3.0-0.40","partial","Female","40","United States of America","","C766687","LA","freqGain","Mozilla/5.0 (Macintosh; Intel Mac OS X 10_11_6) AppleWebKit/537.36 (KHTML, like Gecko) Chrome/83.0.4103.61 Safari/537.36","1.52","","5324","","<img src = 'img/A1-B1-L1-W0.jpg' width = '600'>","0","41","","","","",""
"","html-keyboard-response","85","759194","0.0-3.0-1.40","partial","Female","40","United States of America","","C766687","LA","freqGain","Mozilla/5.0 (Macintosh; Intel Mac OS X 10_11_6) AppleWebKit/537.36 (KHTML, like Gecko) Chrome/83.0.4103.61 Safari/537.36","1.52","","null","","You successfully harvested honey! You earned <b>3 </b>points.","","41","null","3","65","",""
"","html-button-response","86","762113","0.0-3.0-0.41","partial","Female","40","United States of America","","C766687","LA","freqGain","Mozilla/5.0 (Macintosh; Intel Mac OS X 10_11_6) AppleWebKit/537.36 (KHTML, like Gecko) Chrome/83.0.4103.61 Safari/537.36","1.52","","2918","","<img src = 'img/A0-B1-L1-W0.jpg' width = '600'>","1","42","","","","",""
"","html-keyboard-response","87","764118","0.0-3.0-1.41","partial","Female","40","United States of America","","C766687","LA","freqGain","Mozilla/5.0 (Macintosh; Intel Mac OS X 10_11_6) AppleWebKit/537.36 (KHTML, like Gecko) Chrome/83.0.4103.61 Safari/537.36","1.52","","null","","You avoided this hive. You earned <b>0 </b>points.","","42","null","0","65","",""
"","html-button-response","88","767112","0.0-3.0-0.42","partial","Female","40","United States of America","","C766687","LA","freqGain","Mozilla/5.0 (Macintosh; Intel Mac OS X 10_11_6) AppleWebKit/537.36 (KHTML, like Gecko) Chrome/83.0.4103.61 Safari/537.36","1.52","","2992","","<img src = 'img/A0-B1-L0-W1.jpg' width = '600'>","1","43","","","","",""
"","html-keyboard-response","89","769116","0.0-3.0-1.42","partial","Female","40","United States of America","","C766687","LA","freqGain","Mozilla/5.0 (Macintosh; Intel Mac OS X 10_11_6) AppleWebKit/537.36 (KHTML, like Gecko) Chrome/83.0.4103.61 Safari/537.36","1.52","","null","","You avoided this hive. You earned <b>0 </b>points.","","43","null","0","65","",""
"","html-button-response","90","773345","0.0-3.0-0.43","partial","Female","40","United States of America","","C766687","LA","freqGain","Mozilla/5.0 (Macintosh; Intel Mac OS X 10_11_6) AppleWebKit/537.36 (KHTML, like Gecko) Chrome/83.0.4103.61 Safari/537.36","1.52","","4228","","<img src = 'img/A1-B0-L1-W0.jpg' width = '600'>","0","44","","","","",""
"","html-keyboard-response","91","775351","0.0-3.0-1.43","partial","Female","40","United States of America","","C766687","LA","freqGain","Mozilla/5.0 (Macintosh; Intel Mac OS X 10_11_6) AppleWebKit/537.36 (KHTML, like Gecko) Chrome/83.0.4103.61 Safari/537.36","1.52","","null","","You successfully harvested honey! You earned <b>3 </b>points.","","44","null","3","68","",""
"","html-button-response","92","777662","0.0-3.0-0.44","partial","Female","40","United States of America","","C766687","LA","freqGain","Mozilla/5.0 (Macintosh; Intel Mac OS X 10_11_6) AppleWebKit/537.36 (KHTML, like Gecko) Chrome/83.0.4103.61 Safari/537.36","1.52","","2310","","<img src = 'img/A0-B0-L1-W1.jpg' width = '600'>","1","45","","","","",""
"","html-keyboard-response","93","779665","0.0-3.0-1.44","partial","Female","40","United States of America","","C766687","LA","freqGain","Mozilla/5.0 (Macintosh; Intel Mac OS X 10_11_6) AppleWebKit/537.36 (KHTML, like Gecko) Chrome/83.0.4103.61 Safari/537.36","1.52","","null","","You avoided this hive. You earned <b>0 </b>points.","","45","null","0","68","",""
"","html-button-response","94","781504","0.0-3.0-0.45","partial","Female","40","United States of America","","C766687","LA","freqGain","Mozilla/5.0 (Macintosh; Intel Mac OS X 10_11_6) AppleWebKit/537.36 (KHTML, like Gecko) Chrome/83.0.4103.61 Safari/537.36","1.52","","1836","","<img src = 'img/A1-B0-L0-W1.jpg' width = '600'>","1","46","","","","",""
"","html-keyboard-response","95","783510","0.0-3.0-1.45","partial","Female","40","United States of America","","C766687","LA","freqGain","Mozilla/5.0 (Macintosh; Intel Mac OS X 10_11_6) AppleWebKit/537.36 (KHTML, like Gecko) Chrome/83.0.4103.61 Safari/537.36","1.52","","null","","You avoided this hive. You earned <b>0 </b>points.","","46","null","0","68","",""
"","html-button-response","96","785452","0.0-3.0-0.46","partial","Female","40","United States of America","","C766687","LA","freqGain","Mozilla/5.0 (Macintosh; Intel Mac OS X 10_11_6) AppleWebKit/537.36 (KHTML, like Gecko) Chrome/83.0.4103.61 Safari/537.36","1.52","","1941","","<img src = 'img/A0-B0-L0-W0.jpg' width = '600'>","1","47","","","","",""
"","html-keyboard-response","97","787456","0.0-3.0-1.46","partial","Female","40","United States of America","","C766687","LA","freqGain","Mozilla/5.0 (Macintosh; Intel Mac OS X 10_11_6) AppleWebKit/537.36 (KHTML, like Gecko) Chrome/83.0.4103.61 Safari/537.36","1.52","","null","","You avoided this hive. You earned <b>0 </b>points.","","47","null","0","68","",""
"","html-button-response","98","788890","0.0-3.0-0.47","partial","Female","40","United States of America","","C766687","LA","freqGain","Mozilla/5.0 (Macintosh; Intel Mac OS X 10_11_6) AppleWebKit/537.36 (KHTML, like Gecko) Chrome/83.0.4103.61 Safari/537.36","1.52","","1432","","<img src = 'img/A0-B1-L0-W0.jpg' width = '600'>","1","48","","","","",""
"","html-keyboard-response","99","790892","0.0-3.0-1.47","partial","Female","40","United States of America","","C766687","LA","freqGain","Mozilla/5.0 (Macintosh; Intel Mac OS X 10_11_6) AppleWebKit/537.36 (KHTML, like Gecko) Chrome/83.0.4103.61 Safari/537.36","1.52","","null","","You avoided this hive. You earned <b>0 </b>points.","","48","null","0","68","",""
"","html-button-response","100","793746","0.0-3.0-0.48","partial","Female","40","United States of America","","C766687","LA","freqGain","Mozilla/5.0 (Macintosh; Intel Mac OS X 10_11_6) AppleWebKit/537.36 (KHTML, like Gecko) Chrome/83.0.4103.61 Safari/537.36","1.52","","2853","","<img src = 'img/A1-B1-L0-W0.jpg' width = '600'>","1","49","","","","",""
"","html-keyboard-response","101","795748","0.0-3.0-1.48","partial","Female","40","United States of America","","C766687","LA","freqGain","Mozilla/5.0 (Macintosh; Intel Mac OS X 10_11_6) AppleWebKit/537.36 (KHTML, like Gecko) Chrome/83.0.4103.61 Safari/537.36","1.52","","null","","You avoided this hive. You earned <b>0 </b>points.","","49","null","0","68","",""
"","html-button-response","102","798710","0.0-3.0-0.49","partial","Female","40","United States of America","","C766687","LA","freqGain","Mozilla/5.0 (Macintosh; Intel Mac OS X 10_11_6) AppleWebKit/537.36 (KHTML, like Gecko) Chrome/83.0.4103.61 Safari/537.36","1.52","","2961","","<img src = 'img/A0-B0-L1-W1.jpg' width = '600'>","1","50","","","","",""
"","html-keyboard-response","103","800716","0.0-3.0-1.49","partial","Female","40","United States of America","","C766687","LA","freqGain","Mozilla/5.0 (Macintosh; Intel Mac OS X 10_11_6) AppleWebKit/537.36 (KHTML, like Gecko) Chrome/83.0.4103.61 Safari/537.36","1.52","","null","","You avoided this hive. You earned <b>0 </b>points.","","50","null","0","68","",""
"","html-button-response","104","802854","0.0-3.0-0.50","partial","Female","40","United States of America","","C766687","LA","freqGain","Mozilla/5.0 (Macintosh; Intel Mac OS X 10_11_6) AppleWebKit/537.36 (KHTML, like Gecko) Chrome/83.0.4103.61 Safari/537.36","1.52","","2137","","<img src = 'img/A1-B1-L0-W1.jpg' width = '600'>","1","51","","","","",""
"","html-keyboard-response","105","804858","0.0-3.0-1.50","partial","Female","40","United States of America","","C766687","LA","freqGain","Mozilla/5.0 (Macintosh; Intel Mac OS X 10_11_6) AppleWebKit/537.36 (KHTML, like Gecko) Chrome/83.0.4103.61 Safari/537.36","1.52","","null","","You avoided this hive. You earned <b>0 </b>points.","","51","null","0","68","",""
"","html-button-response","106","807893","0.0-3.0-0.51","partial","Female","40","United States of America","","C766687","LA","freqGain","Mozilla/5.0 (Macintosh; Intel Mac OS X 10_11_6) AppleWebKit/537.36 (KHTML, like Gecko) Chrome/83.0.4103.61 Safari/537.36","1.52","","3033","","<img src = 'img/A1-B1-L1-W0.jpg' width = '600'>","0","52","","","","",""
"","html-keyboard-response","107","809895","0.0-3.0-1.51","partial","Female","40","United States of America","","C766687","LA","freqGain","Mozilla/5.0 (Macintosh; Intel Mac OS X 10_11_6) AppleWebKit/537.36 (KHTML, like Gecko) Chrome/83.0.4103.61 Safari/537.36","1.52","","null","","You successfully harvested honey! You earned <b>3 </b>points.","","52","null","3","71","",""
"","html-button-response","108","813463","0.0-3.0-0.52","partial","Female","40","United States of America","","C766687","LA","freqGain","Mozilla/5.0 (Macintosh; Intel Mac OS X 10_11_6) AppleWebKit/537.36 (KHTML, like Gecko) Chrome/83.0.4103.61 Safari/537.36","1.52","","3567","","<img src = 'img/A1-B0-L1-W0.jpg' width = '600'>","0","53","","","","",""
"","html-keyboard-response","109","815468","0.0-3.0-1.52","partial","Female","40","United States of America","","C766687","LA","freqGain","Mozilla/5.0 (Macintosh; Intel Mac OS X 10_11_6) AppleWebKit/537.36 (KHTML, like Gecko) Chrome/83.0.4103.61 Safari/537.36","1.52","","null","","You successfully harvested honey! You earned <b>3 </b>points.","","53","null","3","74","",""
"","html-button-response","110","817314","0.0-3.0-0.53","partial","Female","40","United States of America","","C766687","LA","freqGain","Mozilla/5.0 (Macintosh; Intel Mac OS X 10_11_6) AppleWebKit/537.36 (KHTML, like Gecko) Chrome/83.0.4103.61 Safari/537.36","1.52","","1844","","<img src = 'img/A0-B1-L0-W1.jpg' width = '600'>","1","54","","","","",""
"","html-keyboard-response","111","819315","0.0-3.0-1.53","partial","Female","40","United States of America","","C766687","LA","freqGain","Mozilla/5.0 (Macintosh; Intel Mac OS X 10_11_6) AppleWebKit/537.36 (KHTML, like Gecko) Chrome/83.0.4103.61 Safari/537.36","1.52","","null","","You avoided this hive. You earned <b>0 </b>points.","","54","null","0","74","",""
"","html-button-response","112","820475","0.0-3.0-0.54","partial","Female","40","United States of America","","C766687","LA","freqGain","Mozilla/5.0 (Macintosh; Intel Mac OS X 10_11_6) AppleWebKit/537.36 (KHTML, like Gecko) Chrome/83.0.4103.61 Safari/537.36","1.52","","1159","","<img src = 'img/A0-B1-L0-W0.jpg' width = '600'>","1","55","","","","",""
"","html-keyboard-response","113","822478","0.0-3.0-1.54","partial","Female","40","United States of America","","C766687","LA","freqGain","Mozilla/5.0 (Macintosh; Intel Mac OS X 10_11_6) AppleWebKit/537.36 (KHTML, like Gecko) Chrome/83.0.4103.61 Safari/537.36","1.52","","null","","You avoided this hive. You earned <b>0 </b>points.","","55","null","0","74","",""
"","html-button-response","114","823740","0.0-3.0-0.55","partial","Female","40","United States of America","","C766687","LA","freqGain","Mozilla/5.0 (Macintosh; Intel Mac OS X 10_11_6) AppleWebKit/537.36 (KHTML, like Gecko) Chrome/83.0.4103.61 Safari/537.36","1.52","","1261","","<img src = 'img/A1-B0-L0-W1.jpg' width = '600'>","1","56","","","","",""
"","html-keyboard-response","115","825745","0.0-3.0-1.55","partial","Female","40","United States of America","","C766687","LA","freqGain","Mozilla/5.0 (Macintosh; Intel Mac OS X 10_11_6) AppleWebKit/537.36 (KHTML, like Gecko) Chrome/83.0.4103.61 Safari/537.36","1.52","","null","","You avoided this hive. You earned <b>0 </b>points.","","56","null","0","74","",""
"","html-button-response","116","827954","0.0-3.0-0.56","partial","Female","40","United States of America","","C766687","LA","freqGain","Mozilla/5.0 (Macintosh; Intel Mac OS X 10_11_6) AppleWebKit/537.36 (KHTML, like Gecko) Chrome/83.0.4103.61 Safari/537.36","1.52","","2207","","<img src = 'img/A1-B1-L1-W1.jpg' width = '600'>","0","57","","","","",""
"","html-keyboard-response","117","829957","0.0-3.0-1.56","partial","Female","40","United States of America","","C766687","LA","freqGain","Mozilla/5.0 (Macintosh; Intel Mac OS X 10_11_6) AppleWebKit/537.36 (KHTML, like Gecko) Chrome/83.0.4103.61 Safari/537.36","1.52","","null","","You successfully harvested honey! You earned <b>3 </b>points.","","57","null","3","77","",""
"","html-button-response","118","831472","0.0-3.0-0.57","partial","Female","40","United States of America","","C766687","LA","freqGain","Mozilla/5.0 (Macintosh; Intel Mac OS X 10_11_6) AppleWebKit/537.36 (KHTML, like Gecko) Chrome/83.0.4103.61 Safari/537.36","1.52","","1514","","<img src = 'img/A0-B1-L1-W1.jpg' width = '600'>","1","58","","","","",""
"","html-keyboard-response","119","833474","0.0-3.0-1.57","partial","Female","40","United States of America","","C766687","LA","freqGain","Mozilla/5.0 (Macintosh; Intel Mac OS X 10_11_6) AppleWebKit/537.36 (KHTML, like Gecko) Chrome/83.0.4103.61 Safari/537.36","1.52","","null","","You avoided this hive. You earned <b>0 </b>points.","","58","null","0","77","",""
"","html-button-response","120","834939","0.0-3.0-0.58","partial","Female","40","United States of America","","C766687","LA","freqGain","Mozilla/5.0 (Macintosh; Intel Mac OS X 10_11_6) AppleWebKit/537.36 (KHTML, like Gecko) Chrome/83.0.4103.61 Safari/537.36","1.52","","1464","","<img src = 'img/A0-B0-L0-W0.jpg' width = '600'>","1","59","","","","",""
"","html-keyboard-response","121","836944","0.0-3.0-1.58","partial","Female","40","United States of America","","C766687","LA","freqGain","Mozilla/5.0 (Macintosh; Intel Mac OS X 10_11_6) AppleWebKit/537.36 (KHTML, like Gecko) Chrome/83.0.4103.61 Safari/537.36","1.52","","null","","You avoided this hive. You earned <b>0 </b>points.","","59","null","0","77","",""
"","html-button-response","122","837846","0.0-3.0-0.59","partial","Female","40","United States of America","","C766687","LA","freqGain","Mozilla/5.0 (Macintosh; Intel Mac OS X 10_11_6) AppleWebKit/537.36 (KHTML, like Gecko) Chrome/83.0.4103.61 Safari/537.36","1.52","","900","","<img src = 'img/A0-B1-L1-W0.jpg' width = '600'>","1","60","","","","",""
"","html-keyboard-response","123","839849","0.0-3.0-1.59","partial","Female","40","United States of America","","C766687","LA","freqGain","Mozilla/5.0 (Macintosh; Intel Mac OS X 10_11_6) AppleWebKit/537.36 (KHTML, like Gecko) Chrome/83.0.4103.61 Safari/537.36","1.52","","null","","You avoided this hive. You earned <b>0 </b>points.","","60","null","0","77","",""
"","html-button-response","124","841463","0.0-3.0-0.60","partial","Female","40","United States of America","","C766687","LA","freqGain","Mozilla/5.0 (Macintosh; Intel Mac OS X 10_11_6) AppleWebKit/537.36 (KHTML, like Gecko) Chrome/83.0.4103.61 Safari/537.36","1.52","","1612","","<img src = 'img/A1-B0-L1-W1.jpg' width = '600'>","0","61","","","","",""
"","html-keyboard-response","125","843468","0.0-3.0-1.60","partial","Female","40","United States of America","","C766687","LA","freqGain","Mozilla/5.0 (Macintosh; Intel Mac OS X 10_11_6) AppleWebKit/537.36 (KHTML, like Gecko) Chrome/83.0.4103.61 Safari/537.36","1.52","","null","","You successfully harvested honey! You earned <b>3 </b>points.","","61","null","3","80","",""
"","html-button-response","126","844669","0.0-3.0-0.61","partial","Female","40","United States of America","","C766687","LA","freqGain","Mozilla/5.0 (Macintosh; Intel Mac OS X 10_11_6) AppleWebKit/537.36 (KHTML, like Gecko) Chrome/83.0.4103.61 Safari/537.36","1.52","","1199","","<img src = 'img/A0-B0-L0-W1.jpg' width = '600'>","1","62","","","","",""
"","html-keyboard-response","127","846675","0.0-3.0-1.61","partial","Female","40","United States of America","","C766687","LA","freqGain","Mozilla/5.0 (Macintosh; Intel Mac OS X 10_11_6) AppleWebKit/537.36 (KHTML, like Gecko) Chrome/83.0.4103.61 Safari/537.36","1.52","","null","","You avoided this hive. You earned <b>0 </b>points.","","62","null","0","80","",""
"","html-button-response","128","847712","0.0-3.0-0.62","partial","Female","40","United States of America","","C766687","LA","freqGain","Mozilla/5.0 (Macintosh; Intel Mac OS X 10_11_6) AppleWebKit/537.36 (KHTML, like Gecko) Chrome/83.0.4103.61 Safari/537.36","1.52","","1035","","<img src = 'img/A0-B0-L1-W0.jpg' width = '600'>","1","63","","","","",""
"","html-keyboard-response","129","849715","0.0-3.0-1.62","partial","Female","40","United States of America","","C766687","LA","freqGain","Mozilla/5.0 (Macintosh; Intel Mac OS X 10_11_6) AppleWebKit/537.36 (KHTML, like Gecko) Chrome/83.0.4103.61 Safari/537.36","1.52","","null","","You avoided this hive. You earned <b>0 </b>points.","","63","null","0","80","",""
"","html-button-response","130","851102","0.0-3.0-0.63","partial","Female","40","United States of America","","C766687","LA","freqGain","Mozilla/5.0 (Macintosh; Intel Mac OS X 10_11_6) AppleWebKit/537.36 (KHTML, like Gecko) Chrome/83.0.4103.61 Safari/537.36","1.52","","1386","","<img src = 'img/A1-B0-L0-W0.jpg' width = '600'>","1","64","","","","",""
"","html-keyboard-response","131","853106","0.0-3.0-1.63","partial","Female","40","United States of America","","C766687","LA","freqGain","Mozilla/5.0 (Macintosh; Intel Mac OS X 10_11_6) AppleWebKit/537.36 (KHTML, like Gecko) Chrome/83.0.4103.61 Safari/537.36","1.52","","null","","You avoided this hive. You earned <b>0 </b>points.","","64","null","0","80","",""
"","html-button-response","132","855823","0.0-3.0-0.64","partial","Female","40","United States of America","","C766687","LA","freqGain","Mozilla/5.0 (Macintosh; Intel Mac OS X 10_11_6) AppleWebKit/537.36 (KHTML, like Gecko) Chrome/83.0.4103.61 Safari/537.36","1.52","","2715","","<img src = 'img/A1-B0-L1-W1.jpg' width = '600'>","0","65","","","","",""
"","html-keyboard-response","133","857825","0.0-3.0-1.64","partial","Female","40","United States of America","","C766687","LA","freqGain","Mozilla/5.0 (Macintosh; Intel Mac OS X 10_11_6) AppleWebKit/537.36 (KHTML, like Gecko) Chrome/83.0.4103.61 Safari/537.36","1.52","","null","","You successfully harvested honey! You earned <b>3 </b>points.","","65","null","3","83","",""
"","html-button-response","134","859292","0.0-3.0-0.65","partial","Female","40","United States of America","","C766687","LA","freqGain","Mozilla/5.0 (Macintosh; Intel Mac OS X 10_11_6) AppleWebKit/537.36 (KHTML, like Gecko) Chrome/83.0.4103.61 Safari/537.36","1.52","","1466","","<img src = 'img/A0-B1-L1-W0.jpg' width = '600'>","1","66","","","","",""
"","html-keyboard-response","135","861297","0.0-3.0-1.65","partial","Female","40","United States of America","","C766687","LA","freqGain","Mozilla/5.0 (Macintosh; Intel Mac OS X 10_11_6) AppleWebKit/537.36 (KHTML, like Gecko) Chrome/83.0.4103.61 Safari/537.36","1.52","","null","","You avoided this hive. You earned <b>0 </b>points.","","66","null","0","83","",""
"","html-button-response","136","863693","0.0-3.0-0.66","partial","Female","40","United States of America","","C766687","LA","freqGain","Mozilla/5.0 (Macintosh; Intel Mac OS X 10_11_6) AppleWebKit/537.36 (KHTML, like Gecko) Chrome/83.0.4103.61 Safari/537.36","1.52","","2394","","<img src = 'img/A0-B0-L1-W0.jpg' width = '600'>","1","67","","","","",""
"","html-keyboard-response","137","865699","0.0-3.0-1.66","partial","Female","40","United States of America","","C766687","LA","freqGain","Mozilla/5.0 (Macintosh; Intel Mac OS X 10_11_6) AppleWebKit/537.36 (KHTML, like Gecko) Chrome/83.0.4103.61 Safari/537.36","1.52","","null","","You avoided this hive. You earned <b>0 </b>points.","","67","null","0","83","",""
"","html-button-response","138","867445","0.0-3.0-0.67","partial","Female","40","United States of America","","C766687","LA","freqGain","Mozilla/5.0 (Macintosh; Intel Mac OS X 10_11_6) AppleWebKit/537.36 (KHTML, like Gecko) Chrome/83.0.4103.61 Safari/537.36","1.52","","1745","","<img src = 'img/A1-B1-L1-W0.jpg' width = '600'>","0","68","","","","",""
"","html-keyboard-response","139","869446","0.0-3.0-1.67","partial","Female","40","United States of America","","C766687","LA","freqGain","Mozilla/5.0 (Macintosh; Intel Mac OS X 10_11_6) AppleWebKit/537.36 (KHTML, like Gecko) Chrome/83.0.4103.61 Safari/537.36","1.52","","null","","You successfully harvested honey! You earned <b>3 </b>points.","","68","null","3","86","",""
"","html-button-response","140","871017","0.0-3.0-0.68","partial","Female","40","United States of America","","C766687","LA","freqGain","Mozilla/5.0 (Macintosh; Intel Mac OS X 10_11_6) AppleWebKit/537.36 (KHTML, like Gecko) Chrome/83.0.4103.61 Safari/537.36","1.52","","1569","","<img src = 'img/A0-B1-L0-W0.jpg' width = '600'>","1","69","","","","",""
"","html-keyboard-response","141","873022","0.0-3.0-1.68","partial","Female","40","United States of America","","C766687","LA","freqGain","Mozilla/5.0 (Macintosh; Intel Mac OS X 10_11_6) AppleWebKit/537.36 (KHTML, like Gecko) Chrome/83.0.4103.61 Safari/537.36","1.52","","null","","You avoided this hive. You earned <b>0 </b>points.","","69","null","0","86","",""
"","html-button-response","142","874534","0.0-3.0-0.69","partial","Female","40","United States of America","","C766687","LA","freqGain","Mozilla/5.0 (Macintosh; Intel Mac OS X 10_11_6) AppleWebKit/537.36 (KHTML, like Gecko) Chrome/83.0.4103.61 Safari/537.36","1.52","","1511","","<img src = 'img/A0-B1-L1-W1.jpg' width = '600'>","1","70","","","","",""
"","html-keyboard-response","143","876535","0.0-3.0-1.69","partial","Female","40","United States of America","","C766687","LA","freqGain","Mozilla/5.0 (Macintosh; Intel Mac OS X 10_11_6) AppleWebKit/537.36 (KHTML, like Gecko) Chrome/83.0.4103.61 Safari/537.36","1.52","","null","","You avoided this hive. You earned <b>0 </b>points.","","70","null","0","86","",""
"","html-button-response","144","879064","0.0-3.0-0.70","partial","Female","40","United States of America","","C766687","LA","freqGain","Mozilla/5.0 (Macintosh; Intel Mac OS X 10_11_6) AppleWebKit/537.36 (KHTML, like Gecko) Chrome/83.0.4103.61 Safari/537.36","1.52","","2528","","<img src = 'img/A0-B1-L0-W1.jpg' width = '600'>","1","71","","","","",""
"","html-keyboard-response","145","881067","0.0-3.0-1.70","partial","Female","40","United States of America","","C766687","LA","freqGain","Mozilla/5.0 (Macintosh; Intel Mac OS X 10_11_6) AppleWebKit/537.36 (KHTML, like Gecko) Chrome/83.0.4103.61 Safari/537.36","1.52","","null","","You avoided this hive. You earned <b>0 </b>points.","","71","null","0","86","",""
"","html-button-response","146","882451","0.0-3.0-0.71","partial","Female","40","United States of America","","C766687","LA","freqGain","Mozilla/5.0 (Macintosh; Intel Mac OS X 10_11_6) AppleWebKit/537.36 (KHTML, like Gecko) Chrome/83.0.4103.61 Safari/537.36","1.52","","1382","","<img src = 'img/A1-B1-L0-W0.jpg' width = '600'>","1","72","","","","",""
"","html-keyboard-response","147","884456","0.0-3.0-1.71","partial","Female","40","United States of America","","C766687","LA","freqGain","Mozilla/5.0 (Macintosh; Intel Mac OS X 10_11_6) AppleWebKit/537.36 (KHTML, like Gecko) Chrome/83.0.4103.61 Safari/537.36","1.52","","null","","You avoided this hive. You earned <b>0 </b>points.","","72","null","0","86","",""
"","html-button-response","148","885970","0.0-3.0-0.72","partial","Female","40","United States of America","","C766687","LA","freqGain","Mozilla/5.0 (Macintosh; Intel Mac OS X 10_11_6) AppleWebKit/537.36 (KHTML, like Gecko) Chrome/83.0.4103.61 Safari/537.36","1.52","","1512","","<img src = 'img/A1-B0-L1-W0.jpg' width = '600'>","0","73","","","","",""
"","html-keyboard-response","149","887973","0.0-3.0-1.72","partial","Female","40","United States of America","","C766687","LA","freqGain","Mozilla/5.0 (Macintosh; Intel Mac OS X 10_11_6) AppleWebKit/537.36 (KHTML, like Gecko) Chrome/83.0.4103.61 Safari/537.36","1.52","","null","","You successfully harvested honey! You earned <b>3 </b>points.","","73","null","3","89","",""
"","html-button-response","150","890338","0.0-3.0-0.73","partial","Female","40","United States of America","","C766687","LA","freqGain","Mozilla/5.0 (Macintosh; Intel Mac OS X 10_11_6) AppleWebKit/537.36 (KHTML, like Gecko) Chrome/83.0.4103.61 Safari/537.36","1.52","","2363","","<img src = 'img/A1-B1-L0-W1.jpg' width = '600'>","1","74","","","","",""
"","html-keyboard-response","151","892344","0.0-3.0-1.73","partial","Female","40","United States of America","","C766687","LA","freqGain","Mozilla/5.0 (Macintosh; Intel Mac OS X 10_11_6) AppleWebKit/537.36 (KHTML, like Gecko) Chrome/83.0.4103.61 Safari/537.36","1.52","","null","","You avoided this hive. You earned <b>0 </b>points.","","74","null","0","89","",""
"","html-button-response","152","893407","0.0-3.0-0.74","partial","Female","40","United States of America","","C766687","LA","freqGain","Mozilla/5.0 (Macintosh; Intel Mac OS X 10_11_6) AppleWebKit/537.36 (KHTML, like Gecko) Chrome/83.0.4103.61 Safari/537.36","1.52","","1061","","<img src = 'img/A1-B0-L0-W0.jpg' width = '600'>","1","75","","","","",""
"","html-keyboard-response","153","895413","0.0-3.0-1.74","partial","Female","40","United States of America","","C766687","LA","freqGain","Mozilla/5.0 (Macintosh; Intel Mac OS X 10_11_6) AppleWebKit/537.36 (KHTML, like Gecko) Chrome/83.0.4103.61 Safari/537.36","1.52","","null","","You avoided this hive. You earned <b>0 </b>points.","","75","null","0","89","",""
"","html-button-response","154","896316","0.0-3.0-0.75","partial","Female","40","United States of America","","C766687","LA","freqGain","Mozilla/5.0 (Macintosh; Intel Mac OS X 10_11_6) AppleWebKit/537.36 (KHTML, like Gecko) Chrome/83.0.4103.61 Safari/537.36","1.52","","902","","<img src = 'img/A1-B0-L0-W1.jpg' width = '600'>","1","76","","","","",""
"","html-keyboard-response","155","898322","0.0-3.0-1.75","partial","Female","40","United States of America","","C766687","LA","freqGain","Mozilla/5.0 (Macintosh; Intel Mac OS X 10_11_6) AppleWebKit/537.36 (KHTML, like Gecko) Chrome/83.0.4103.61 Safari/537.36","1.52","","null","","You avoided this hive. You earned <b>0 </b>points.","","76","null","0","89","",""
"","html-button-response","156","899262","0.0-3.0-0.76","partial","Female","40","United States of America","","C766687","LA","freqGain","Mozilla/5.0 (Macintosh; Intel Mac OS X 10_11_6) AppleWebKit/537.36 (KHTML, like Gecko) Chrome/83.0.4103.61 Safari/537.36","1.52","","938","","<img src = 'img/A0-B0-L0-W0.jpg' width = '600'>","1","77","","","","",""
"","html-keyboard-response","157","901268","0.0-3.0-1.76","partial","Female","40","United States of America","","C766687","LA","freqGain","Mozilla/5.0 (Macintosh; Intel Mac OS X 10_11_6) AppleWebKit/537.36 (KHTML, like Gecko) Chrome/83.0.4103.61 Safari/537.36","1.52","","null","","You avoided this hive. You earned <b>0 </b>points.","","77","null","0","89","",""
"","html-button-response","158","902188","0.0-3.0-0.77","partial","Female","40","United States of America","","C766687","LA","freqGain","Mozilla/5.0 (Macintosh; Intel Mac OS X 10_11_6) AppleWebKit/537.36 (KHTML, like Gecko) Chrome/83.0.4103.61 Safari/537.36","1.52","","919","","<img src = 'img/A0-B0-L0-W1.jpg' width = '600'>","1","78","","","","",""
"","html-keyboard-response","159","904193","0.0-3.0-1.77","partial","Female","40","United States of America","","C766687","LA","freqGain","Mozilla/5.0 (Macintosh; Intel Mac OS X 10_11_6) AppleWebKit/537.36 (KHTML, like Gecko) Chrome/83.0.4103.61 Safari/537.36","1.52","","null","","You avoided this hive. You earned <b>0 </b>points.","","78","null","0","89","",""
"","html-button-response","160","905751","0.0-3.0-0.78","partial","Female","40","United States of America","","C766687","LA","freqGain","Mozilla/5.0 (Macintosh; Intel Mac OS X 10_11_6) AppleWebKit/537.36 (KHTML, like Gecko) Chrome/83.0.4103.61 Safari/537.36","1.52","","1557","","<img src = 'img/A0-B0-L1-W1.jpg' width = '600'>","1","79","","","","",""
"","html-keyboard-response","161","907753","0.0-3.0-1.78","partial","Female","40","United States of America","","C766687","LA","freqGain","Mozilla/5.0 (Macintosh; Intel Mac OS X 10_11_6) AppleWebKit/537.36 (KHTML, like Gecko) Chrome/83.0.4103.61 Safari/537.36","1.52","","null","","You avoided this hive. You earned <b>0 </b>points.","","79","null","0","89","",""
"","html-button-response","162","909416","0.0-3.0-0.79","partial","Female","40","United States of America","","C766687","LA","freqGain","Mozilla/5.0 (Macintosh; Intel Mac OS X 10_11_6) AppleWebKit/537.36 (KHTML, like Gecko) Chrome/83.0.4103.61 Safari/537.36","1.52","","1660","","<img src = 'img/A1-B1-L1-W1.jpg' width = '600'>","0","80","","","","",""
"","html-keyboard-response","163","911421","0.0-3.0-1.79","partial","Female","40","United States of America","","C766687","LA","freqGain","Mozilla/5.0 (Macintosh; Intel Mac OS X 10_11_6) AppleWebKit/537.36 (KHTML, like Gecko) Chrome/83.0.4103.61 Safari/537.36","1.52","","null","","You successfully harvested honey! You earned <b>3 </b>points.","","80","null","3","92","",""
"","html-button-response","164","913106","0.0-3.0-0.80","partial","Female","40","United States of America","","C766687","LA","freqGain","Mozilla/5.0 (Macintosh; Intel Mac OS X 10_11_6) AppleWebKit/537.36 (KHTML, like Gecko) Chrome/83.0.4103.61 Safari/537.36","1.52","","1683","","<img src = 'img/A1-B0-L1-W0.jpg' width = '600'>","0","81","","","","",""
"","html-keyboard-response","165","915109","0.0-3.0-1.80","partial","Female","40","United States of America","","C766687","LA","freqGain","Mozilla/5.0 (Macintosh; Intel Mac OS X 10_11_6) AppleWebKit/537.36 (KHTML, like Gecko) Chrome/83.0.4103.61 Safari/537.36","1.52","","null","","You successfully harvested honey! You earned <b>3 </b>points.","","81","null","3","95","",""
"","html-button-response","166","917211","0.0-3.0-0.81","partial","Female","40","United States of America","","C766687","LA","freqGain","Mozilla/5.0 (Macintosh; Intel Mac OS X 10_11_6) AppleWebKit/537.36 (KHTML, like Gecko) Chrome/83.0.4103.61 Safari/537.36","1.52","","2101","","<img src = 'img/A1-B0-L0-W1.jpg' width = '600'>","1","82","","","","",""
"","html-keyboard-response","167","919215","0.0-3.0-1.81","partial","Female","40","United States of America","","C766687","LA","freqGain","Mozilla/5.0 (Macintosh; Intel Mac OS X 10_11_6) AppleWebKit/537.36 (KHTML, like Gecko) Chrome/83.0.4103.61 Safari/537.36","1.52","","null","","You avoided this hive. You earned <b>0 </b>points.","","82","null","0","95","",""
"","html-button-response","168","920512","0.0-3.0-0.82","partial","Female","40","United States of America","","C766687","LA","freqGain","Mozilla/5.0 (Macintosh; Intel Mac OS X 10_11_6) AppleWebKit/537.36 (KHTML, like Gecko) Chrome/83.0.4103.61 Safari/537.36","1.52","","1295","","<img src = 'img/A1-B1-L0-W0.jpg' width = '600'>","1","83","","","","",""
"","html-keyboard-response","169","922514","0.0-3.0-1.82","partial","Female","40","United States of America","","C766687","LA","freqGain","Mozilla/5.0 (Macintosh; Intel Mac OS X 10_11_6) AppleWebKit/537.36 (KHTML, like Gecko) Chrome/83.0.4103.61 Safari/537.36","1.52","","null","","You avoided this hive. You earned <b>0 </b>points.","","83","null","0","95","",""
"","html-button-response","170","924016","0.0-3.0-0.83","partial","Female","40","United States of America","","C766687","LA","freqGain","Mozilla/5.0 (Macintosh; Intel Mac OS X 10_11_6) AppleWebKit/537.36 (KHTML, like Gecko) Chrome/83.0.4103.61 Safari/537.36","1.52","","1501","","<img src = 'img/A0-B1-L1-W0.jpg' width = '600'>","1","84","","","","",""
"","html-keyboard-response","171","926021","0.0-3.0-1.83","partial","Female","40","United States of America","","C766687","LA","freqGain","Mozilla/5.0 (Macintosh; Intel Mac OS X 10_11_6) AppleWebKit/537.36 (KHTML, like Gecko) Chrome/83.0.4103.61 Safari/537.36","1.52","","null","","You avoided this hive. You earned <b>0 </b>points.","","84","null","0","95","",""
"","html-button-response","172","926990","0.0-3.0-0.84","partial","Female","40","United States of America","","C766687","LA","freqGain","Mozilla/5.0 (Macintosh; Intel Mac OS X 10_11_6) AppleWebKit/537.36 (KHTML, like Gecko) Chrome/83.0.4103.61 Safari/537.36","1.52","","968","","<img src = 'img/A1-B1-L0-W1.jpg' width = '600'>","1","85","","","","",""
"","html-keyboard-response","173","928992","0.0-3.0-1.84","partial","Female","40","United States of America","","C766687","LA","freqGain","Mozilla/5.0 (Macintosh; Intel Mac OS X 10_11_6) AppleWebKit/537.36 (KHTML, like Gecko) Chrome/83.0.4103.61 Safari/537.36","1.52","","null","","You avoided this hive. You earned <b>0 </b>points.","","85","null","0","95","",""
"","html-button-response","174","929875","0.0-3.0-0.85","partial","Female","40","United States of America","","C766687","LA","freqGain","Mozilla/5.0 (Macintosh; Intel Mac OS X 10_11_6) AppleWebKit/537.36 (KHTML, like Gecko) Chrome/83.0.4103.61 Safari/537.36","1.52","","881","","<img src = 'img/A1-B0-L0-W0.jpg' width = '600'>","1","86","","","","",""
"","html-keyboard-response","175","931878","0.0-3.0-1.85","partial","Female","40","United States of America","","C766687","LA","freqGain","Mozilla/5.0 (Macintosh; Intel Mac OS X 10_11_6) AppleWebKit/537.36 (KHTML, like Gecko) Chrome/83.0.4103.61 Safari/537.36","1.52","","null","","You avoided this hive. You earned <b>0 </b>points.","","86","null","0","95","",""
"","html-button-response","176","933210","0.0-3.0-0.86","partial","Female","40","United States of America","","C766687","LA","freqGain","Mozilla/5.0 (Macintosh; Intel Mac OS X 10_11_6) AppleWebKit/537.36 (KHTML, like Gecko) Chrome/83.0.4103.61 Safari/537.36","1.52","","1329","","<img src = 'img/A1-B1-L1-W0.jpg' width = '600'>","0","87","","","","",""
"","html-keyboard-response","177","935211","0.0-3.0-1.86","partial","Female","40","United States of America","","C766687","LA","freqGain","Mozilla/5.0 (Macintosh; Intel Mac OS X 10_11_6) AppleWebKit/537.36 (KHTML, like Gecko) Chrome/83.0.4103.61 Safari/537.36","1.52","","null","","You successfully harvested honey! You earned <b>3 </b>points.","","87","null","3","98","",""
"","html-button-response","178","936559","0.0-3.0-0.87","partial","Female","40","United States of America","","C766687","LA","freqGain","Mozilla/5.0 (Macintosh; Intel Mac OS X 10_11_6) AppleWebKit/537.36 (KHTML, like Gecko) Chrome/83.0.4103.61 Safari/537.36","1.52","","1348","","<img src = 'img/A0-B1-L0-W1.jpg' width = '600'>","1","88","","","","",""
"","html-keyboard-response","179","938565","0.0-3.0-1.87","partial","Female","40","United States of America","","C766687","LA","freqGain","Mozilla/5.0 (Macintosh; Intel Mac OS X 10_11_6) AppleWebKit/537.36 (KHTML, like Gecko) Chrome/83.0.4103.61 Safari/537.36","1.52","","null","","You avoided this hive. You earned <b>0 </b>points.","","88","null","0","98","",""
"","html-button-response","180","940002","0.0-3.0-0.88","partial","Female","40","United States of America","","C766687","LA","freqGain","Mozilla/5.0 (Macintosh; Intel Mac OS X 10_11_6) AppleWebKit/537.36 (KHTML, like Gecko) Chrome/83.0.4103.61 Safari/537.36","1.52","","1435","","<img src = 'img/A0-B0-L1-W1.jpg' width = '600'>","1","89","","","","",""
"","html-keyboard-response","181","942006","0.0-3.0-1.88","partial","Female","40","United States of America","","C766687","LA","freqGain","Mozilla/5.0 (Macintosh; Intel Mac OS X 10_11_6) AppleWebKit/537.36 (KHTML, like Gecko) Chrome/83.0.4103.61 Safari/537.36","1.52","","null","","You avoided this hive. You earned <b>0 </b>points.","","89","null","0","98","",""
"","html-button-response","182","943433","0.0-3.0-0.89","partial","Female","40","United States of America","","C766687","LA","freqGain","Mozilla/5.0 (Macintosh; Intel Mac OS X 10_11_6) AppleWebKit/537.36 (KHTML, like Gecko) Chrome/83.0.4103.61 Safari/537.36","1.52","","1426","","<img src = 'img/A1-B1-L1-W1.jpg' width = '600'>","0","90","","","","",""
"","html-keyboard-response","183","945434","0.0-3.0-1.89","partial","Female","40","United States of America","","C766687","LA","freqGain","Mozilla/5.0 (Macintosh; Intel Mac OS X 10_11_6) AppleWebKit/537.36 (KHTML, like Gecko) Chrome/83.0.4103.61 Safari/537.36","1.52","","null","","You successfully harvested honey! You earned <b>3 </b>points.","","90","null","3","101","",""
"","html-button-response","184","946587","0.0-3.0-0.90","partial","Female","40","United States of America","","C766687","LA","freqGain","Mozilla/5.0 (Macintosh; Intel Mac OS X 10_11_6) AppleWebKit/537.36 (KHTML, like Gecko) Chrome/83.0.4103.61 Safari/537.36","1.52","","1152","","<img src = 'img/A0-B0-L0-W0.jpg' width = '600'>","1","91","","","","",""
"","html-keyboard-response","185","948588","0.0-3.0-1.90","partial","Female","40","United States of America","","C766687","LA","freqGain","Mozilla/5.0 (Macintosh; Intel Mac OS X 10_11_6) AppleWebKit/537.36 (KHTML, like Gecko) Chrome/83.0.4103.61 Safari/537.36","1.52","","null","","You avoided this hive. You earned <b>0 </b>points.","","91","null","0","101","",""
"","html-button-response","186","949583","0.0-3.0-0.91","partial","Female","40","United States of America","","C766687","LA","freqGain","Mozilla/5.0 (Macintosh; Intel Mac OS X 10_11_6) AppleWebKit/537.36 (KHTML, like Gecko) Chrome/83.0.4103.61 Safari/537.36","1.52","","993","","<img src = 'img/A0-B1-L0-W0.jpg' width = '600'>","1","92","","","","",""
"","html-keyboard-response","187","951584","0.0-3.0-1.91","partial","Female","40","United States of America","","C766687","LA","freqGain","Mozilla/5.0 (Macintosh; Intel Mac OS X 10_11_6) AppleWebKit/537.36 (KHTML, like Gecko) Chrome/83.0.4103.61 Safari/537.36","1.52","","null","","You avoided this hive. You earned <b>0 </b>points.","","92","null","0","101","",""
"","html-button-response","188","952643","0.0-3.0-0.92","partial","Female","40","United States of America","","C766687","LA","freqGain","Mozilla/5.0 (Macintosh; Intel Mac OS X 10_11_6) AppleWebKit/537.36 (KHTML, like Gecko) Chrome/83.0.4103.61 Safari/537.36","1.52","","1057","","<img src = 'img/A0-B1-L1-W1.jpg' width = '600'>","1","93","","","","",""
"","html-keyboard-response","189","954644","0.0-3.0-1.92","partial","Female","40","United States of America","","C766687","LA","freqGain","Mozilla/5.0 (Macintosh; Intel Mac OS X 10_11_6) AppleWebKit/537.36 (KHTML, like Gecko) Chrome/83.0.4103.61 Safari/537.36","1.52","","null","","You avoided this hive. You earned <b>0 </b>points.","","93","null","0","101","",""
"","html-button-response","190","955571","0.0-3.0-0.93","partial","Female","40","United States of America","","C766687","LA","freqGain","Mozilla/5.0 (Macintosh; Intel Mac OS X 10_11_6) AppleWebKit/537.36 (KHTML, like Gecko) Chrome/83.0.4103.61 Safari/537.36","1.52","","926","","<img src = 'img/A0-B0-L0-W1.jpg' width = '600'>","1","94","","","","",""
"","html-keyboard-response","191","957572","0.0-3.0-1.93","partial","Female","40","United States of America","","C766687","LA","freqGain","Mozilla/5.0 (Macintosh; Intel Mac OS X 10_11_6) AppleWebKit/537.36 (KHTML, like Gecko) Chrome/83.0.4103.61 Safari/537.36","1.52","","null","","You avoided this hive. You earned <b>0 </b>points.","","94","null","0","101","",""
"","html-button-response","192","959021","0.0-3.0-0.94","partial","Female","40","United States of America","","C766687","LA","freqGain","Mozilla/5.0 (Macintosh; Intel Mac OS X 10_11_6) AppleWebKit/537.36 (KHTML, like Gecko) Chrome/83.0.4103.61 Safari/537.36","1.52","","1448","","<img src = 'img/A1-B0-L1-W1.jpg' width = '600'>","0","95","","","","",""
"","html-keyboard-response","193","961024","0.0-3.0-1.94","partial","Female","40","United States of America","","C766687","LA","freqGain","Mozilla/5.0 (Macintosh; Intel Mac OS X 10_11_6) AppleWebKit/537.36 (KHTML, like Gecko) Chrome/83.0.4103.61 Safari/537.36","1.52","","null","","You successfully harvested honey! You earned <b>3 </b>points.","","95","null","3","104","",""
"","html-button-response","194","962392","0.0-3.0-0.95","partial","Female","40","United States of America","","C766687","LA","freqGain","Mozilla/5.0 (Macintosh; Intel Mac OS X 10_11_6) AppleWebKit/537.36 (KHTML, like Gecko) Chrome/83.0.4103.61 Safari/537.36","1.52","","1366","","<img src = 'img/A0-B0-L1-W0.jpg' width = '600'>","1","96","","","","",""
"","html-keyboard-response","195","964395","0.0-3.0-1.95","partial","Female","40","United States of America","","C766687","LA","freqGain","Mozilla/5.0 (Macintosh; Intel Mac OS X 10_11_6) AppleWebKit/537.36 (KHTML, like Gecko) Chrome/83.0.4103.61 Safari/537.36","1.52","","null","","You avoided this hive. You earned <b>0 </b>points.","","96","null","0","104","",""
"","html-button-response","196","965671","0.0-3.0-0.96","partial","Female","40","United States of America","","C766687","LA","freqGain","Mozilla/5.0 (Macintosh; Intel Mac OS X 10_11_6) AppleWebKit/537.36 (KHTML, like Gecko) Chrome/83.0.4103.61 Safari/537.36","1.52","","1275","","<img src = 'img/A1-B0-L1-W0.jpg' width = '600'>","0","97","","","","",""
"","html-keyboard-response","197","967674","0.0-3.0-1.96","partial","Female","40","United States of America","","C766687","LA","freqGain","Mozilla/5.0 (Macintosh; Intel Mac OS X 10_11_6) AppleWebKit/537.36 (KHTML, like Gecko) Chrome/83.0.4103.61 Safari/537.36","1.52","","null","","You successfully harvested honey! You earned <b>3 </b>points.","","97","null","3","107","",""
"","html-button-response","198","969366","0.0-3.0-0.97","partial","Female","40","United States of America","","C766687","LA","freqGain","Mozilla/5.0 (Macintosh; Intel Mac OS X 10_11_6) AppleWebKit/537.36 (KHTML, like Gecko) Chrome/83.0.4103.61 Safari/537.36","1.52","","1689","","<img src = 'img/A0-B0-L0-W1.jpg' width = '600'>","1","98","","","","",""
"","html-keyboard-response","199","971370","0.0-3.0-1.97","partial","Female","40","United States of America","","C766687","LA","freqGain","Mozilla/5.0 (Macintosh; Intel Mac OS X 10_11_6) AppleWebKit/537.36 (KHTML, like Gecko) Chrome/83.0.4103.61 Safari/537.36","1.52","","null","","You avoided this hive. You earned <b>0 </b>points.","","98","null","0","107","",""
"","html-button-response","200","972572","0.0-3.0-0.98","partial","Female","40","United States of America","","C766687","LA","freqGain","Mozilla/5.0 (Macintosh; Intel Mac OS X 10_11_6) AppleWebKit/537.36 (KHTML, like Gecko) Chrome/83.0.4103.61 Safari/537.36","1.52","","1200","","<img src = 'img/A1-B1-L0-W1.jpg' width = '600'>","1","99","","","","",""
"","html-keyboard-response","201","974577","0.0-3.0-1.98","partial","Female","40","United States of America","","C766687","LA","freqGain","Mozilla/5.0 (Macintosh; Intel Mac OS X 10_11_6) AppleWebKit/537.36 (KHTML, like Gecko) Chrome/83.0.4103.61 Safari/537.36","1.52","","null","","You avoided this hive. You earned <b>0 </b>points.","","99","null","0","107","",""
"","html-button-response","202","975987","0.0-3.0-0.99","partial","Female","40","United States of America","","C766687","LA","freqGain","Mozilla/5.0 (Macintosh; Intel Mac OS X 10_11_6) AppleWebKit/537.36 (KHTML, like Gecko) Chrome/83.0.4103.61 Safari/537.36","1.52","","1408","","<img src = 'img/A0-B0-L1-W0.jpg' width = '600'>","1","100","","","","",""
"","html-keyboard-response","203","977991","0.0-3.0-1.99","partial","Female","40","United States of America","","C766687","LA","freqGain","Mozilla/5.0 (Macintosh; Intel Mac OS X 10_11_6) AppleWebKit/537.36 (KHTML, like Gecko) Chrome/83.0.4103.61 Safari/537.36","1.52","","null","","You avoided this hive. You earned <b>0 </b>points.","","100","null","0","107","",""
"","html-button-response","204","979105","0.0-3.0-0.100","partial","Female","40","United States of America","","C766687","LA","freqGain","Mozilla/5.0 (Macintosh; Intel Mac OS X 10_11_6) AppleWebKit/537.36 (KHTML, like Gecko) Chrome/83.0.4103.61 Safari/537.36","1.52","","1113","","<img src = 'img/A0-B0-L0-W0.jpg' width = '600'>","1","101","","","","",""
"","html-keyboard-response","205","981108","0.0-3.0-1.100","partial","Female","40","United States of America","","C766687","LA","freqGain","Mozilla/5.0 (Macintosh; Intel Mac OS X 10_11_6) AppleWebKit/537.36 (KHTML, like Gecko) Chrome/83.0.4103.61 Safari/537.36","1.52","","null","","You avoided this hive. You earned <b>0 </b>points.","","101","null","0","107","",""
"","html-button-response","206","982647","0.0-3.0-0.101","partial","Female","40","United States of America","","C766687","LA","freqGain","Mozilla/5.0 (Macintosh; Intel Mac OS X 10_11_6) AppleWebKit/537.36 (KHTML, like Gecko) Chrome/83.0.4103.61 Safari/537.36","1.52","","1538","","<img src = 'img/A1-B0-L0-W0.jpg' width = '600'>","1","102","","","","",""
"","html-keyboard-response","207","984649","0.0-3.0-1.101","partial","Female","40","United States of America","","C766687","LA","freqGain","Mozilla/5.0 (Macintosh; Intel Mac OS X 10_11_6) AppleWebKit/537.36 (KHTML, like Gecko) Chrome/83.0.4103.61 Safari/537.36","1.52","","null","","You avoided this hive. You earned <b>0 </b>points.","","102","null","0","107","",""
"","html-button-response","208","988080","0.0-3.0-0.102","partial","Female","40","United States of America","","C766687","LA","freqGain","Mozilla/5.0 (Macintosh; Intel Mac OS X 10_11_6) AppleWebKit/537.36 (KHTML, like Gecko) Chrome/83.0.4103.61 Safari/537.36","1.52","","3429","","<img src = 'img/A0-B1-L0-W0.jpg' width = '600'>","1","103","","","","",""
"","html-keyboard-response","209","990083","0.0-3.0-1.102","partial","Female","40","United States of America","","C766687","LA","freqGain","Mozilla/5.0 (Macintosh; Intel Mac OS X 10_11_6) AppleWebKit/537.36 (KHTML, like Gecko) Chrome/83.0.4103.61 Safari/537.36","1.52","","null","","You avoided this hive. You earned <b>0 </b>points.","","103","null","0","107","",""
"","html-button-response","210","992035","0.0-3.0-0.103","partial","Female","40","United States of America","","C766687","LA","freqGain","Mozilla/5.0 (Macintosh; Intel Mac OS X 10_11_6) AppleWebKit/537.36 (KHTML, like Gecko) Chrome/83.0.4103.61 Safari/537.36","1.52","","1951","","<img src = 'img/A1-B1-L1-W1.jpg' width = '600'>","0","104","","","","",""
"","html-keyboard-response","211","994038","0.0-3.0-1.103","partial","Female","40","United States of America","","C766687","LA","freqGain","Mozilla/5.0 (Macintosh; Intel Mac OS X 10_11_6) AppleWebKit/537.36 (KHTML, like Gecko) Chrome/83.0.4103.61 Safari/537.36","1.52","","null","","You successfully harvested honey! You earned <b>3 </b>points.","","104","null","3","110","",""
"","html-button-response","212","995457","0.0-3.0-0.104","partial","Female","40","United States of America","","C766687","LA","freqGain","Mozilla/5.0 (Macintosh; Intel Mac OS X 10_11_6) AppleWebKit/537.36 (KHTML, like Gecko) Chrome/83.0.4103.61 Safari/537.36","1.52","","1418","","<img src = 'img/A1-B1-L0-W0.jpg' width = '600'>","1","105","","","","",""
"","html-keyboard-response","213","997463","0.0-3.0-1.104","partial","Female","40","United States of America","","C766687","LA","freqGain","Mozilla/5.0 (Macintosh; Intel Mac OS X 10_11_6) AppleWebKit/537.36 (KHTML, like Gecko) Chrome/83.0.4103.61 Safari/537.36","1.52","","null","","You avoided this hive. You earned <b>0 </b>points.","","105","null","0","110","",""
"","html-button-response","214","1000915","0.0-3.0-0.105","partial","Female","40","United States of America","","C766687","LA","freqGain","Mozilla/5.0 (Macintosh; Intel Mac OS X 10_11_6) AppleWebKit/537.36 (KHTML, like Gecko) Chrome/83.0.4103.61 Safari/537.36","1.52","","3450","","<img src = 'img/A0-B1-L1-W0.jpg' width = '600'>","1","106","","","","",""
"","html-keyboard-response","215","1002917","0.0-3.0-1.105","partial","Female","40","United States of America","","C766687","LA","freqGain","Mozilla/5.0 (Macintosh; Intel Mac OS X 10_11_6) AppleWebKit/537.36 (KHTML, like Gecko) Chrome/83.0.4103.61 Safari/537.36","1.52","","null","","You avoided this hive. You earned <b>0 </b>points.","","106","null","0","110","",""
"","html-button-response","216","1004111","0.0-3.0-0.106","partial","Female","40","United States of America","","C766687","LA","freqGain","Mozilla/5.0 (Macintosh; Intel Mac OS X 10_11_6) AppleWebKit/537.36 (KHTML, like Gecko) Chrome/83.0.4103.61 Safari/537.36","1.52","","1192","","<img src = 'img/A0-B0-L1-W1.jpg' width = '600'>","1","107","","","","",""
"","html-keyboard-response","217","1006114","0.0-3.0-1.106","partial","Female","40","United States of America","","C766687","LA","freqGain","Mozilla/5.0 (Macintosh; Intel Mac OS X 10_11_6) AppleWebKit/537.36 (KHTML, like Gecko) Chrome/83.0.4103.61 Safari/537.36","1.52","","null","","You avoided this hive. You earned <b>0 </b>points.","","107","null","0","110","",""
"","html-button-response","218","1006916","0.0-3.0-0.107","partial","Female","40","United States of America","","C766687","LA","freqGain","Mozilla/5.0 (Macintosh; Intel Mac OS X 10_11_6) AppleWebKit/537.36 (KHTML, like Gecko) Chrome/83.0.4103.61 Safari/537.36","1.52","","801","","<img src = 'img/A0-B1-L1-W1.jpg' width = '600'>","1","108","","","","",""
"","html-keyboard-response","219","1008922","0.0-3.0-1.107","partial","Female","40","United States of America","","C766687","LA","freqGain","Mozilla/5.0 (Macintosh; Intel Mac OS X 10_11_6) AppleWebKit/537.36 (KHTML, like Gecko) Chrome/83.0.4103.61 Safari/537.36","1.52","","null","","You avoided this hive. You earned <b>0 </b>points.","","108","null","0","110","",""
"","html-button-response","220","1009973","0.0-3.0-0.108","partial","Female","40","United States of America","","C766687","LA","freqGain","Mozilla/5.0 (Macintosh; Intel Mac OS X 10_11_6) AppleWebKit/537.36 (KHTML, like Gecko) Chrome/83.0.4103.61 Safari/537.36","1.52","","1049","","<img src = 'img/A0-B1-L0-W1.jpg' width = '600'>","1","109","","","","",""
"","html-keyboard-response","221","1011978","0.0-3.0-1.108","partial","Female","40","United States of America","","C766687","LA","freqGain","Mozilla/5.0 (Macintosh; Intel Mac OS X 10_11_6) AppleWebKit/537.36 (KHTML, like Gecko) Chrome/83.0.4103.61 Safari/537.36","1.52","","null","","You avoided this hive. You earned <b>0 </b>points.","","109","null","0","110","",""
"","html-button-response","222","1013180","0.0-3.0-0.109","partial","Female","40","United States of America","","C766687","LA","freqGain","Mozilla/5.0 (Macintosh; Intel Mac OS X 10_11_6) AppleWebKit/537.36 (KHTML, like Gecko) Chrome/83.0.4103.61 Safari/537.36","1.52","","1200","","<img src = 'img/A1-B0-L0-W1.jpg' width = '600'>","1","110","","","","",""
"","html-keyboard-response","223","1015182","0.0-3.0-1.109","partial","Female","40","United States of America","","C766687","LA","freqGain","Mozilla/5.0 (Macintosh; Intel Mac OS X 10_11_6) AppleWebKit/537.36 (KHTML, like Gecko) Chrome/83.0.4103.61 Safari/537.36","1.52","","null","","You avoided this hive. You earned <b>0 </b>points.","","110","null","0","110","",""
"","html-button-response","224","1017242","0.0-3.0-0.110","partial","Female","40","United States of America","","C766687","LA","freqGain","Mozilla/5.0 (Macintosh; Intel Mac OS X 10_11_6) AppleWebKit/537.36 (KHTML, like Gecko) Chrome/83.0.4103.61 Safari/537.36","1.52","","2058","","<img src = 'img/A1-B1-L1-W0.jpg' width = '600'>","0","111","","","","",""
"","html-keyboard-response","225","1019244","0.0-3.0-1.110","partial","Female","40","United States of America","","C766687","LA","freqGain","Mozilla/5.0 (Macintosh; Intel Mac OS X 10_11_6) AppleWebKit/537.36 (KHTML, like Gecko) Chrome/83.0.4103.61 Safari/537.36","1.52","","null","","You successfully harvested honey! You earned <b>3 </b>points.","","111","null","3","113","",""
"","html-button-response","226","1020975","0.0-3.0-0.111","partial","Female","40","United States of America","","C766687","LA","freqGain","Mozilla/5.0 (Macintosh; Intel Mac OS X 10_11_6) AppleWebKit/537.36 (KHTML, like Gecko) Chrome/83.0.4103.61 Safari/537.36","1.52","","1729","","<img src = 'img/A1-B0-L1-W1.jpg' width = '600'>","0","112","","","","",""
"","html-keyboard-response","227","1022978","0.0-3.0-1.111","partial","Female","40","United States of America","","C766687","LA","freqGain","Mozilla/5.0 (Macintosh; Intel Mac OS X 10_11_6) AppleWebKit/537.36 (KHTML, like Gecko) Chrome/83.0.4103.61 Safari/537.36","1.52","","null","","You successfully harvested honey! You earned <b>3 </b>points.","","112","null","3","116","",""
"","html-button-response","228","1024523","0.0-3.0-0.112","partial","Female","40","United States of America","","C766687","LA","freqGain","Mozilla/5.0 (Macintosh; Intel Mac OS X 10_11_6) AppleWebKit/537.36 (KHTML, like Gecko) Chrome/83.0.4103.61 Safari/537.36","1.52","","1544","","<img src = 'img/A1-B1-L0-W1.jpg' width = '600'>","1","113","","","","",""
"","html-keyboard-response","229","1026529","0.0-3.0-1.112","partial","Female","40","United States of America","","C766687","LA","freqGain","Mozilla/5.0 (Macintosh; Intel Mac OS X 10_11_6) AppleWebKit/537.36 (KHTML, like Gecko) Chrome/83.0.4103.61 Safari/537.36","1.52","","null","","You avoided this hive. You earned <b>0 </b>points.","","113","null","0","116","",""
"","html-button-response","230","1028042","0.0-3.0-0.113","partial","Female","40","United States of America","","C766687","LA","freqGain","Mozilla/5.0 (Macintosh; Intel Mac OS X 10_11_6) AppleWebKit/537.36 (KHTML, like Gecko) Chrome/83.0.4103.61 Safari/537.36","1.52","","1512","","<img src = 'img/A1-B1-L1-W1.jpg' width = '600'>","0","114","","","","",""
"","html-keyboard-response","231","1030044","0.0-3.0-1.113","partial","Female","40","United States of America","","C766687","LA","freqGain","Mozilla/5.0 (Macintosh; Intel Mac OS X 10_11_6) AppleWebKit/537.36 (KHTML, like Gecko) Chrome/83.0.4103.61 Safari/537.36","1.52","","null","","You successfully harvested honey! You earned <b>3 </b>points.","","114","null","3","119","",""
"","html-button-response","232","1031658","0.0-3.0-0.114","partial","Female","40","United States of America","","C766687","LA","freqGain","Mozilla/5.0 (Macintosh; Intel Mac OS X 10_11_6) AppleWebKit/537.36 (KHTML, like Gecko) Chrome/83.0.4103.61 Safari/537.36","1.52","","1613","","<img src = 'img/A0-B0-L0-W1.jpg' width = '600'>","1","115","","","","",""
"","html-keyboard-response","233","1033665","0.0-3.0-1.114","partial","Female","40","United States of America","","C766687","LA","freqGain","Mozilla/5.0 (Macintosh; Intel Mac OS X 10_11_6) AppleWebKit/537.36 (KHTML, like Gecko) Chrome/83.0.4103.61 Safari/537.36","1.52","","null","","You avoided this hive. You earned <b>0 </b>points.","","115","null","0","119","",""
"","html-button-response","234","1034473","0.0-3.0-0.115","partial","Female","40","United States of America","","C766687","LA","freqGain","Mozilla/5.0 (Macintosh; Intel Mac OS X 10_11_6) AppleWebKit/537.36 (KHTML, like Gecko) Chrome/83.0.4103.61 Safari/537.36","1.52","","807","","<img src = 'img/A0-B0-L0-W0.jpg' width = '600'>","1","116","","","","",""
"","html-keyboard-response","235","1036477","0.0-3.0-1.115","partial","Female","40","United States of America","","C766687","LA","freqGain","Mozilla/5.0 (Macintosh; Intel Mac OS X 10_11_6) AppleWebKit/537.36 (KHTML, like Gecko) Chrome/83.0.4103.61 Safari/537.36","1.52","","null","","You avoided this hive. You earned <b>0 </b>points.","","116","null","0","119","",""
"","html-button-response","236","1037820","0.0-3.0-0.116","partial","Female","40","United States of America","","C766687","LA","freqGain","Mozilla/5.0 (Macintosh; Intel Mac OS X 10_11_6) AppleWebKit/537.36 (KHTML, like Gecko) Chrome/83.0.4103.61 Safari/537.36","1.52","","1341","","<img src = 'img/A1-B1-L1-W0.jpg' width = '600'>","0","117","","","","",""
"","html-keyboard-response","237","1039823","0.0-3.0-1.116","partial","Female","40","United States of America","","C766687","LA","freqGain","Mozilla/5.0 (Macintosh; Intel Mac OS X 10_11_6) AppleWebKit/537.36 (KHTML, like Gecko) Chrome/83.0.4103.61 Safari/537.36","1.52","","null","","You successfully harvested honey! You earned <b>3 </b>points.","","117","null","3","122","",""
"","html-button-response","238","1041465","0.0-3.0-0.117","partial","Female","40","United States of America","","C766687","LA","freqGain","Mozilla/5.0 (Macintosh; Intel Mac OS X 10_11_6) AppleWebKit/537.36 (KHTML, like Gecko) Chrome/83.0.4103.61 Safari/537.36","1.52","","1639","","<img src = 'img/A0-B1-L1-W1.jpg' width = '600'>","1","118","","","","",""
"","html-keyboard-response","239","1043465","0.0-3.0-1.117","partial","Female","40","United States of America","","C766687","LA","freqGain","Mozilla/5.0 (Macintosh; Intel Mac OS X 10_11_6) AppleWebKit/537.36 (KHTML, like Gecko) Chrome/83.0.4103.61 Safari/537.36","1.52","","null","","You avoided this hive. You earned <b>0 </b>points.","","118","null","0","122","",""
"","html-button-response","240","1045013","0.0-3.0-0.118","partial","Female","40","United States of America","","C766687","LA","freqGain","Mozilla/5.0 (Macintosh; Intel Mac OS X 10_11_6) AppleWebKit/537.36 (KHTML, like Gecko) Chrome/83.0.4103.61 Safari/537.36","1.52","","1546","","<img src = 'img/A0-B1-L1-W0.jpg' width = '600'>","1","119","","","","",""
"","html-keyboard-response","241","1047015","0.0-3.0-1.118","partial","Female","40","United States of America","","C766687","LA","freqGain","Mozilla/5.0 (Macintosh; Intel Mac OS X 10_11_6) AppleWebKit/537.36 (KHTML, like Gecko) Chrome/83.0.4103.61 Safari/537.36","1.52","","null","","You avoided this hive. You earned <b>0 </b>points.","","119","null","0","122","",""
"","html-button-response","242","1048363","0.0-3.0-0.119","partial","Female","40","United States of America","","C766687","LA","freqGain","Mozilla/5.0 (Macintosh; Intel Mac OS X 10_11_6) AppleWebKit/537.36 (KHTML, like Gecko) Chrome/83.0.4103.61 Safari/537.36","1.52","","1347","","<img src = 'img/A0-B0-L1-W1.jpg' width = '600'>","1","120","","","","",""
"","html-keyboard-response","243","1050368","0.0-3.0-1.119","partial","Female","40","United States of America","","C766687","LA","freqGain","Mozilla/5.0 (Macintosh; Intel Mac OS X 10_11_6) AppleWebKit/537.36 (KHTML, like Gecko) Chrome/83.0.4103.61 Safari/537.36","1.52","","null","","You avoided this hive. You earned <b>0 </b>points.","","120","null","0","122","",""
"","html-button-response","244","1052151","0.0-3.0-0.120","partial","Female","40","United States of America","","C766687","LA","freqGain","Mozilla/5.0 (Macintosh; Intel Mac OS X 10_11_6) AppleWebKit/537.36 (KHTML, like Gecko) Chrome/83.0.4103.61 Safari/537.36","1.52","","1782","","<img src = 'img/A0-B1-L0-W0.jpg' width = '600'>","1","121","","","","",""
"","html-keyboard-response","245","1054155","0.0-3.0-1.120","partial","Female","40","United States of America","","C766687","LA","freqGain","Mozilla/5.0 (Macintosh; Intel Mac OS X 10_11_6) AppleWebKit/537.36 (KHTML, like Gecko) Chrome/83.0.4103.61 Safari/537.36","1.52","","null","","You avoided this hive. You earned <b>0 </b>points.","","121","null","0","122","",""
"","html-button-response","246","1054917","0.0-3.0-0.121","partial","Female","40","United States of America","","C766687","LA","freqGain","Mozilla/5.0 (Macintosh; Intel Mac OS X 10_11_6) AppleWebKit/537.36 (KHTML, like Gecko) Chrome/83.0.4103.61 Safari/537.36","1.52","","760","","<img src = 'img/A0-B1-L0-W1.jpg' width = '600'>","1","122","","","","",""
"","html-keyboard-response","247","1056918","0.0-3.0-1.121","partial","Female","40","United States of America","","C766687","LA","freqGain","Mozilla/5.0 (Macintosh; Intel Mac OS X 10_11_6) AppleWebKit/537.36 (KHTML, like Gecko) Chrome/83.0.4103.61 Safari/537.36","1.52","","null","","You avoided this hive. You earned <b>0 </b>points.","","122","null","0","122","",""
"","html-button-response","248","1058132","0.0-3.0-0.122","partial","Female","40","United States of America","","C766687","LA","freqGain","Mozilla/5.0 (Macintosh; Intel Mac OS X 10_11_6) AppleWebKit/537.36 (KHTML, like Gecko) Chrome/83.0.4103.61 Safari/537.36","1.52","","1213","","<img src = 'img/A1-B0-L0-W0.jpg' width = '600'>","1","123","","","","",""
"","html-keyboard-response","249","1060136","0.0-3.0-1.122","partial","Female","40","United States of America","","C766687","LA","freqGain","Mozilla/5.0 (Macintosh; Intel Mac OS X 10_11_6) AppleWebKit/537.36 (KHTML, like Gecko) Chrome/83.0.4103.61 Safari/537.36","1.52","","null","","You avoided this hive. You earned <b>0 </b>points.","","123","null","0","122","",""
"","html-button-response","250","1061075","0.0-3.0-0.123","partial","Female","40","United States of America","","C766687","LA","freqGain","Mozilla/5.0 (Macintosh; Intel Mac OS X 10_11_6) AppleWebKit/537.36 (KHTML, like Gecko) Chrome/83.0.4103.61 Safari/537.36","1.52","","937","","<img src = 'img/A1-B0-L0-W1.jpg' width = '600'>","1","124","","","","",""
"","html-keyboard-response","251","1063079","0.0-3.0-1.123","partial","Female","40","United States of America","","C766687","LA","freqGain","Mozilla/5.0 (Macintosh; Intel Mac OS X 10_11_6) AppleWebKit/537.36 (KHTML, like Gecko) Chrome/83.0.4103.61 Safari/537.36","1.52","","null","","You avoided this hive. You earned <b>0 </b>points.","","124","null","0","122","",""
"","html-button-response","252","1064017","0.0-3.0-0.124","partial","Female","40","United States of America","","C766687","LA","freqGain","Mozilla/5.0 (Macintosh; Intel Mac OS X 10_11_6) AppleWebKit/537.36 (KHTML, like Gecko) Chrome/83.0.4103.61 Safari/537.36","1.52","","937","","<img src = 'img/A0-B0-L1-W0.jpg' width = '600'>","1","125","","","","",""
"","html-keyboard-response","253","1066023","0.0-3.0-1.124","partial","Female","40","United States of America","","C766687","LA","freqGain","Mozilla/5.0 (Macintosh; Intel Mac OS X 10_11_6) AppleWebKit/537.36 (KHTML, like Gecko) Chrome/83.0.4103.61 Safari/537.36","1.52","","null","","You avoided this hive. You earned <b>0 </b>points.","","125","null","0","122","",""
"","html-button-response","254","1068244","0.0-3.0-0.125","partial","Female","40","United States of America","","C766687","LA","freqGain","Mozilla/5.0 (Macintosh; Intel Mac OS X 10_11_6) AppleWebKit/537.36 (KHTML, like Gecko) Chrome/83.0.4103.61 Safari/537.36","1.52","","2219","","<img src = 'img/A1-B0-L1-W1.jpg' width = '600'>","0","126","","","","",""
"","html-keyboard-response","255","1070245","0.0-3.0-1.125","partial","Female","40","United States of America","","C766687","LA","freqGain","Mozilla/5.0 (Macintosh; Intel Mac OS X 10_11_6) AppleWebKit/537.36 (KHTML, like Gecko) Chrome/83.0.4103.61 Safari/537.36","1.52","","null","","You successfully harvested honey! You earned <b>3 </b>points.","","126","null","3","125","",""
"","html-button-response","256","1072056","0.0-3.0-0.126","partial","Female","40","United States of America","","C766687","LA","freqGain","Mozilla/5.0 (Macintosh; Intel Mac OS X 10_11_6) AppleWebKit/537.36 (KHTML, like Gecko) Chrome/83.0.4103.61 Safari/537.36","1.52","","1810","","<img src = 'img/A1-B1-L0-W0.jpg' width = '600'>","1","127","","","","",""
"","html-keyboard-response","257","1074061","0.0-3.0-1.126","partial","Female","40","United States of America","","C766687","LA","freqGain","Mozilla/5.0 (Macintosh; Intel Mac OS X 10_11_6) AppleWebKit/537.36 (KHTML, like Gecko) Chrome/83.0.4103.61 Safari/537.36","1.52","","null","","You avoided this hive. You earned <b>0 </b>points.","","127","null","0","125","",""
"","html-button-response","258","1076260","0.0-3.0-0.127","partial","Female","40","United States of America","","C766687","LA","freqGain","Mozilla/5.0 (Macintosh; Intel Mac OS X 10_11_6) AppleWebKit/537.36 (KHTML, like Gecko) Chrome/83.0.4103.61 Safari/537.36","1.52","","2198","","<img src = 'img/A1-B0-L1-W0.jpg' width = '600'>","0","128","","","","",""
"","html-keyboard-response","259","1078262","0.0-3.0-1.127","partial","Female","40","United States of America","","C766687","LA","freqGain","Mozilla/5.0 (Macintosh; Intel Mac OS X 10_11_6) AppleWebKit/537.36 (KHTML, like Gecko) Chrome/83.0.4103.61 Safari/537.36","1.52","","null","","You successfully harvested honey! You earned <b>3 </b>points.","","128","null","3","128","",""
"","external-html","260","1099944","0.0-4.0","partial","Female","40","United States of America","","C766687","LA","freqGain","Mozilla/5.0 (Macintosh; Intel Mac OS X 10_11_6) AppleWebKit/537.36 (KHTML, like Gecko) Chrome/83.0.4103.61 Safari/537.36","1.52","","20981.364999999758","","","","","","","","./pages/testinstr-fl.html",""
"","html-button-response","261","1102295","0.0-5.0-0.0","partial","Female","40","United States of America","","C766687","LA","freqGain","Mozilla/5.0 (Macintosh; Intel Mac OS X 10_11_6) AppleWebKit/537.36 (KHTML, like Gecko) Chrome/83.0.4103.61 Safari/537.36","1.52","","2350","","<img src = 'img/A0-B0-L0-W1.jpg' width = '600'>","1","","","","","","1"
"","html-keyboard-response","262","1103702","0.0-5.0-1.0","partial","Female","40","United States of America","","C766687","LA","freqGain","Mozilla/5.0 (Macintosh; Intel Mac OS X 10_11_6) AppleWebKit/537.36 (KHTML, like Gecko) Chrome/83.0.4103.61 Safari/537.36","1.52","","null","","","","","null","0","128","","1"
"","html-button-response","263","1106588","0.0-5.0-0.1","partial","Female","40","United States of America","","C766687","LA","freqGain","Mozilla/5.0 (Macintosh; Intel Mac OS X 10_11_6) AppleWebKit/537.36 (KHTML, like Gecko) Chrome/83.0.4103.61 Safari/537.36","1.52","","2884","","<img src = 'img/A1-B1-L1-W0.jpg' width = '600'>","0","","","","","","2"
"","html-keyboard-response","264","1107991","0.0-5.0-1.1","partial","Female","40","United States of America","","C766687","LA","freqGain","Mozilla/5.0 (Macintosh; Intel Mac OS X 10_11_6) AppleWebKit/537.36 (KHTML, like Gecko) Chrome/83.0.4103.61 Safari/537.36","1.52","","null","","","","","null","3","131","","2"
"","html-button-response","265","1109601","0.0-5.0-0.2","partial","Female","40","United States of America","","C766687","LA","freqGain","Mozilla/5.0 (Macintosh; Intel Mac OS X 10_11_6) AppleWebKit/537.36 (KHTML, like Gecko) Chrome/83.0.4103.61 Safari/537.36","1.52","","1609","","<img src = 'img/A0-B1-L1-W0.jpg' width = '600'>","1","","","","","","3"
"","html-keyboard-response","266","1111007","0.0-5.0-1.2","partial","Female","40","United States of America","","C766687","LA","freqGain","Mozilla/5.0 (Macintosh; Intel Mac OS X 10_11_6) AppleWebKit/537.36 (KHTML, like Gecko) Chrome/83.0.4103.61 Safari/537.36","1.52","","null","","","","","null","0","131","","3"
"","html-button-response","267","1112223","0.0-5.0-0.3","partial","Female","40","United States of America","","C766687","LA","freqGain","Mozilla/5.0 (Macintosh; Intel Mac OS X 10_11_6) AppleWebKit/537.36 (KHTML, like Gecko) Chrome/83.0.4103.61 Safari/537.36","1.52","","1214","","<img src = 'img/A1-B0-L0-W1.jpg' width = '600'>","1","","","","","","4"
"","html-keyboard-response","268","1113625","0.0-5.0-1.3","partial","Female","40","United States of America","","C766687","LA","freqGain","Mozilla/5.0 (Macintosh; Intel Mac OS X 10_11_6) AppleWebKit/537.36 (KHTML, like Gecko) Chrome/83.0.4103.61 Safari/537.36","1.52","","null","","","","","null","0","131","","4"
"","html-button-response","269","1115063","0.0-5.0-0.4","partial","Female","40","United States of America","","C766687","LA","freqGain","Mozilla/5.0 (Macintosh; Intel Mac OS X 10_11_6) AppleWebKit/537.36 (KHTML, like Gecko) Chrome/83.0.4103.61 Safari/537.36","1.52","","1437","","<img src = 'img/A1-B0-L1-W0.jpg' width = '600'>","0","","","","","","5"
"","html-keyboard-response","270","1116469","0.0-5.0-1.4","partial","Female","40","United States of America","","C766687","LA","freqGain","Mozilla/5.0 (Macintosh; Intel Mac OS X 10_11_6) AppleWebKit/537.36 (KHTML, like Gecko) Chrome/83.0.4103.61 Safari/537.36","1.52","","null","","","","","null","3","134","","5"
"","html-button-response","271","1118043","0.0-5.0-0.5","partial","Female","40","United States of America","","C766687","LA","freqGain","Mozilla/5.0 (Macintosh; Intel Mac OS X 10_11_6) AppleWebKit/537.36 (KHTML, like Gecko) Chrome/83.0.4103.61 Safari/537.36","1.52","","1572","","<img src = 'img/A0-B1-L0-W1.jpg' width = '600'>","1","","","","","","6"
"","html-keyboard-response","272","1119447","0.0-5.0-1.5","partial","Female","40","United States of America","","C766687","LA","freqGain","Mozilla/5.0 (Macintosh; Intel Mac OS X 10_11_6) AppleWebKit/537.36 (KHTML, like Gecko) Chrome/83.0.4103.61 Safari/537.36","1.52","","null","","","","","null","0","134","","6"
"","html-button-response","273","1120839","0.0-5.0-0.6","partial","Female","40","United States of America","","C766687","LA","freqGain","Mozilla/5.0 (Macintosh; Intel Mac OS X 10_11_6) AppleWebKit/537.36 (KHTML, like Gecko) Chrome/83.0.4103.61 Safari/537.36","1.52","","1391","","<img src = 'img/A0-B0-L1-W0.jpg' width = '600'>","1","","","","","","7"
"","html-keyboard-response","274","1122241","0.0-5.0-1.6","partial","Female","40","United States of America","","C766687","LA","freqGain","Mozilla/5.0 (Macintosh; Intel Mac OS X 10_11_6) AppleWebKit/537.36 (KHTML, like Gecko) Chrome/83.0.4103.61 Safari/537.36","1.52","","null","","","","","null","0","134","","7"
"","html-button-response","275","1123289","0.0-5.0-0.7","partial","Female","40","United States of America","","C766687","LA","freqGain","Mozilla/5.0 (Macintosh; Intel Mac OS X 10_11_6) AppleWebKit/537.36 (KHTML, like Gecko) Chrome/83.0.4103.61 Safari/537.36","1.52","","1047","","<img src = 'img/A0-B0-L0-W0.jpg' width = '600'>","1","","","","","","8"
"","html-keyboard-response","276","1124694","0.0-5.0-1.7","partial","Female","40","United States of America","","C766687","LA","freqGain","Mozilla/5.0 (Macintosh; Intel Mac OS X 10_11_6) AppleWebKit/537.36 (KHTML, like Gecko) Chrome/83.0.4103.61 Safari/537.36","1.52","","null","","","","","null","0","134","","8"
