"success","trial_type","trial_index","time_elapsed","internal_node_id","feedback","gender","age","country","email","turkcode","relevantDim","condition","browserinfo","bonus","view_history","rt","responses","stimulus","button_pressed","i","key_press","earnedThis","earnedCumulative","url","k"
"true","fullscreen","0","2476","0.0-0.0","partial","Female","60","United States of America","","C567071","BA","freqGain","Mozilla/5.0 (Windows NT 10.0; Win64; x64) AppleWebKit/537.36 (KHTML, like Gecko) Chrome/81.0.4044.138 Safari/537.36","0.52","","","","","","","","","","",""
"","instructions","1","161858","0.0-1.0-0.0","partial","Female","60","United States of America","","C567071","BA","freqGain","Mozilla/5.0 (Windows NT 10.0; Win64; x64) AppleWebKit/537.36 (KHTML, like Gecko) Chrome/81.0.4044.138 Safari/537.36","0.52","[{""page_index"":0,""viewing_time"":26317},{""page_index"":1,""viewing_time"":99096},{""page_index"":2,""viewing_time"":33968}]","159382","","","","","","","","",""
"","survey-html-form","2","217819","0.0-1.0-1.0","partial","Female","60","United States of America","","C567071","BA","freqGain","Mozilla/5.0 (Windows NT 10.0; Win64; x64) AppleWebKit/537.36 (KHTML, like Gecko) Chrome/81.0.4044.138 Safari/537.36","0.52","","55958.54999999574","{""legs"":""checked"",""body"":""checked"",""wings"":""checked"",""antennae"":""checked"",""change"":""no"",""telldangerous"":""feature"",""avoidinfo"":""noInfo""}","","","","","","","",""
"","html-button-response","3","219762","0.0-2.0","partial","Female","60","United States of America","","C567071","BA","freqGain","Mozilla/5.0 (Windows NT 10.0; Win64; x64) AppleWebKit/537.36 (KHTML, like Gecko) Chrome/81.0.4044.138 Safari/537.36","0.52","","1942","","<p>Well done! This is now the last page of instructions.</p> <p>You're going to start experiment now.</p>","0","","","","","",""
"","html-button-response","4","228865","0.0-3.0-0.0","partial","Female","60","United States of America","","C567071","BA","freqGain","Mozilla/5.0 (Windows NT 10.0; Win64; x64) AppleWebKit/537.36 (KHTML, like Gecko) Chrome/81.0.4044.138 Safari/537.36","0.52","","9102","","<img src = 'img/A0-B0-L0-W0.jpg' width = '600'>","0","1","","","","",""
"","html-keyboard-response","5","230868","0.0-3.0-1.0","partial","Female","60","United States of America","","C567071","BA","freqGain","Mozilla/5.0 (Windows NT 10.0; Win64; x64) AppleWebKit/537.36 (KHTML, like Gecko) Chrome/81.0.4044.138 Safari/537.36","0.52","","null","","Ouch, you were stung! You lost <b>-1 </b>point.","","1","null","-1","49","",""
"","html-button-response","6","234177","0.0-3.0-0.1","partial","Female","60","United States of America","","C567071","BA","freqGain","Mozilla/5.0 (Windows NT 10.0; Win64; x64) AppleWebKit/537.36 (KHTML, like Gecko) Chrome/81.0.4044.138 Safari/537.36","0.52","","3308","","<img src = 'img/A1-B1-L0-W0.jpg' width = '600'>","0","2","","","","",""
"","html-keyboard-response","7","236179","0.0-3.0-1.1","partial","Female","60","United States of America","","C567071","BA","freqGain","Mozilla/5.0 (Windows NT 10.0; Win64; x64) AppleWebKit/537.36 (KHTML, like Gecko) Chrome/81.0.4044.138 Safari/537.36","0.52","","null","","You successfully harvested honey! You earned <b>3 </b>points.","","2","null","3","52","",""
"","html-button-response","8","239513","0.0-3.0-0.2","partial","Female","60","United States of America","","C567071","BA","freqGain","Mozilla/5.0 (Windows NT 10.0; Win64; x64) AppleWebKit/537.36 (KHTML, like Gecko) Chrome/81.0.4044.138 Safari/537.36","0.52","","3334","","<img src = 'img/A1-B0-L1-W0.jpg' width = '600'>","0","3","","","","",""
"","html-keyboard-response","9","241515","0.0-3.0-1.2","partial","Female","60","United States of America","","C567071","BA","freqGain","Mozilla/5.0 (Windows NT 10.0; Win64; x64) AppleWebKit/537.36 (KHTML, like Gecko) Chrome/81.0.4044.138 Safari/537.36","0.52","","null","","Ouch, you were stung! You lost <b>-1 </b>point.","","3","null","-1","51","",""
"","html-button-response","10","243097","0.0-3.0-0.3","partial","Female","60","United States of America","","C567071","BA","freqGain","Mozilla/5.0 (Windows NT 10.0; Win64; x64) AppleWebKit/537.36 (KHTML, like Gecko) Chrome/81.0.4044.138 Safari/537.36","0.52","","1581","","<img src = 'img/A1-B0-L0-W1.jpg' width = '600'>","0","4","","","","",""
"","html-keyboard-response","11","245099","0.0-3.0-1.3","partial","Female","60","United States of America","","C567071","BA","freqGain","Mozilla/5.0 (Windows NT 10.0; Win64; x64) AppleWebKit/537.36 (KHTML, like Gecko) Chrome/81.0.4044.138 Safari/537.36","0.52","","null","","Ouch, you were stung! You lost <b>-1 </b>point.","","4","null","-1","50","",""
"","html-button-response","12","247153","0.0-3.0-0.4","partial","Female","60","United States of America","","C567071","BA","freqGain","Mozilla/5.0 (Windows NT 10.0; Win64; x64) AppleWebKit/537.36 (KHTML, like Gecko) Chrome/81.0.4044.138 Safari/537.36","0.52","","2053","","<img src = 'img/A1-B1-L1-W1.jpg' width = '600'>","0","5","","","","",""
"","html-keyboard-response","13","249156","0.0-3.0-1.4","partial","Female","60","United States of America","","C567071","BA","freqGain","Mozilla/5.0 (Windows NT 10.0; Win64; x64) AppleWebKit/537.36 (KHTML, like Gecko) Chrome/81.0.4044.138 Safari/537.36","0.52","","null","","You successfully harvested honey! You earned <b>3 </b>points.","","5","null","3","53","",""
"","html-button-response","14","251009","0.0-3.0-0.5","partial","Female","60","United States of America","","C567071","BA","freqGain","Mozilla/5.0 (Windows NT 10.0; Win64; x64) AppleWebKit/537.36 (KHTML, like Gecko) Chrome/81.0.4044.138 Safari/537.36","0.52","","1852","","<img src = 'img/A0-B1-L1-W0.jpg' width = '600'>","0","6","","","","",""
"","html-keyboard-response","15","253010","0.0-3.0-1.5","partial","Female","60","United States of America","","C567071","BA","freqGain","Mozilla/5.0 (Windows NT 10.0; Win64; x64) AppleWebKit/537.36 (KHTML, like Gecko) Chrome/81.0.4044.138 Safari/537.36","0.52","","null","","Ouch, you were stung! You lost <b>-1 </b>point.","","6","null","-1","52","",""
"","html-button-response","16","255065","0.0-3.0-0.6","partial","Female","60","United States of America","","C567071","BA","freqGain","Mozilla/5.0 (Windows NT 10.0; Win64; x64) AppleWebKit/537.36 (KHTML, like Gecko) Chrome/81.0.4044.138 Safari/537.36","0.52","","2054","","<img src = 'img/A0-B1-L0-W1.jpg' width = '600'>","0","7","","","","",""
"","html-keyboard-response","17","257067","0.0-3.0-1.6","partial","Female","60","United States of America","","C567071","BA","freqGain","Mozilla/5.0 (Windows NT 10.0; Win64; x64) AppleWebKit/537.36 (KHTML, like Gecko) Chrome/81.0.4044.138 Safari/537.36","0.52","","null","","Ouch, you were stung! You lost <b>-1 </b>point.","","7","null","-1","51","",""
"","html-button-response","18","260145","0.0-3.0-0.7","partial","Female","60","United States of America","","C567071","BA","freqGain","Mozilla/5.0 (Windows NT 10.0; Win64; x64) AppleWebKit/537.36 (KHTML, like Gecko) Chrome/81.0.4044.138 Safari/537.36","0.52","","3078","","<img src = 'img/A1-B0-L1-W1.jpg' width = '600'>","0","8","","","","",""
"","html-keyboard-response","19","262147","0.0-3.0-1.7","partial","Female","60","United States of America","","C567071","BA","freqGain","Mozilla/5.0 (Windows NT 10.0; Win64; x64) AppleWebKit/537.36 (KHTML, like Gecko) Chrome/81.0.4044.138 Safari/537.36","0.52","","null","","Ouch, you were stung! You lost <b>-1 </b>point.","","8","null","-1","50","",""
"","html-button-response","20","264065","0.0-3.0-0.8","partial","Female","60","United States of America","","C567071","BA","freqGain","Mozilla/5.0 (Windows NT 10.0; Win64; x64) AppleWebKit/537.36 (KHTML, like Gecko) Chrome/81.0.4044.138 Safari/537.36","0.52","","1917","","<img src = 'img/A0-B0-L1-W1.jpg' width = '600'>","0","9","","","","",""
"","html-keyboard-response","21","266067","0.0-3.0-1.8","partial","Female","60","United States of America","","C567071","BA","freqGain","Mozilla/5.0 (Windows NT 10.0; Win64; x64) AppleWebKit/537.36 (KHTML, like Gecko) Chrome/81.0.4044.138 Safari/537.36","0.52","","null","","Ouch, you were stung! You lost <b>-1 </b>point.","","9","null","-1","49","",""
"","html-button-response","22","267625","0.0-3.0-0.9","partial","Female","60","United States of America","","C567071","BA","freqGain","Mozilla/5.0 (Windows NT 10.0; Win64; x64) AppleWebKit/537.36 (KHTML, like Gecko) Chrome/81.0.4044.138 Safari/537.36","0.52","","1557","","<img src = 'img/A0-B1-L1-W1.jpg' width = '600'>","0","10","","","","",""
"","html-keyboard-response","23","269627","0.0-3.0-1.9","partial","Female","60","United States of America","","C567071","BA","freqGain","Mozilla/5.0 (Windows NT 10.0; Win64; x64) AppleWebKit/537.36 (KHTML, like Gecko) Chrome/81.0.4044.138 Safari/537.36","0.52","","null","","Ouch, you were stung! You lost <b>-1 </b>point.","","10","null","-1","48","",""
"","html-button-response","24","272129","0.0-3.0-0.10","partial","Female","60","United States of America","","C567071","BA","freqGain","Mozilla/5.0 (Windows NT 10.0; Win64; x64) AppleWebKit/537.36 (KHTML, like Gecko) Chrome/81.0.4044.138 Safari/537.36","0.52","","2501","","<img src = 'img/A1-B1-L0-W1.jpg' width = '600'>","0","11","","","","",""
"","html-keyboard-response","25","274131","0.0-3.0-1.10","partial","Female","60","United States of America","","C567071","BA","freqGain","Mozilla/5.0 (Windows NT 10.0; Win64; x64) AppleWebKit/537.36 (KHTML, like Gecko) Chrome/81.0.4044.138 Safari/537.36","0.52","","null","","You successfully harvested honey! You earned <b>3 </b>points.","","11","null","3","51","",""
"","html-button-response","26","276793","0.0-3.0-0.11","partial","Female","60","United States of America","","C567071","BA","freqGain","Mozilla/5.0 (Windows NT 10.0; Win64; x64) AppleWebKit/537.36 (KHTML, like Gecko) Chrome/81.0.4044.138 Safari/537.36","0.52","","2661","","<img src = 'img/A0-B0-L1-W0.jpg' width = '600'>","0","12","","","","",""
"","html-keyboard-response","27","278794","0.0-3.0-1.11","partial","Female","60","United States of America","","C567071","BA","freqGain","Mozilla/5.0 (Windows NT 10.0; Win64; x64) AppleWebKit/537.36 (KHTML, like Gecko) Chrome/81.0.4044.138 Safari/537.36","0.52","","null","","Ouch, you were stung! You lost <b>-1 </b>point.","","12","null","-1","50","",""
"","html-button-response","28","282553","0.0-3.0-0.12","partial","Female","60","United States of America","","C567071","BA","freqGain","Mozilla/5.0 (Windows NT 10.0; Win64; x64) AppleWebKit/537.36 (KHTML, like Gecko) Chrome/81.0.4044.138 Safari/537.36","0.52","","3758","","<img src = 'img/A1-B1-L1-W0.jpg' width = '600'>","0","13","","","","",""
"","html-keyboard-response","29","284554","0.0-3.0-1.12","partial","Female","60","United States of America","","C567071","BA","freqGain","Mozilla/5.0 (Windows NT 10.0; Win64; x64) AppleWebKit/537.36 (KHTML, like Gecko) Chrome/81.0.4044.138 Safari/537.36","0.52","","null","","You successfully harvested honey! You earned <b>3 </b>points.","","13","null","3","53","",""
"","html-button-response","30","286473","0.0-3.0-0.13","partial","Female","60","United States of America","","C567071","BA","freqGain","Mozilla/5.0 (Windows NT 10.0; Win64; x64) AppleWebKit/537.36 (KHTML, like Gecko) Chrome/81.0.4044.138 Safari/537.36","0.52","","1918","","<img src = 'img/A0-B1-L0-W0.jpg' width = '600'>","0","14","","","","",""
"","html-keyboard-response","31","288475","0.0-3.0-1.13","partial","Female","60","United States of America","","C567071","BA","freqGain","Mozilla/5.0 (Windows NT 10.0; Win64; x64) AppleWebKit/537.36 (KHTML, like Gecko) Chrome/81.0.4044.138 Safari/537.36","0.52","","null","","Ouch, you were stung! You lost <b>-1 </b>point.","","14","null","-1","52","",""
"","html-button-response","32","291128","0.0-3.0-0.14","partial","Female","60","United States of America","","C567071","BA","freqGain","Mozilla/5.0 (Windows NT 10.0; Win64; x64) AppleWebKit/537.36 (KHTML, like Gecko) Chrome/81.0.4044.138 Safari/537.36","0.52","","2652","","<img src = 'img/A0-B0-L0-W1.jpg' width = '600'>","0","15","","","","",""
"","html-keyboard-response","33","293130","0.0-3.0-1.14","partial","Female","60","United States of America","","C567071","BA","freqGain","Mozilla/5.0 (Windows NT 10.0; Win64; x64) AppleWebKit/537.36 (KHTML, like Gecko) Chrome/81.0.4044.138 Safari/537.36","0.52","","null","","Ouch, you were stung! You lost <b>-1 </b>point.","","15","null","-1","51","",""
"","html-button-response","34","294393","0.0-3.0-0.15","partial","Female","60","United States of America","","C567071","BA","freqGain","Mozilla/5.0 (Windows NT 10.0; Win64; x64) AppleWebKit/537.36 (KHTML, like Gecko) Chrome/81.0.4044.138 Safari/537.36","0.52","","1261","","<img src = 'img/A1-B0-L0-W0.jpg' width = '600'>","0","16","","","","",""
"","html-keyboard-response","35","296395","0.0-3.0-1.15","partial","Female","60","United States of America","","C567071","BA","freqGain","Mozilla/5.0 (Windows NT 10.0; Win64; x64) AppleWebKit/537.36 (KHTML, like Gecko) Chrome/81.0.4044.138 Safari/537.36","0.52","","null","","Ouch, you were stung! You lost <b>-1 </b>point.","","16","null","-1","50","",""
"","html-button-response","36","300929","0.0-3.0-0.16","partial","Female","60","United States of America","","C567071","BA","freqGain","Mozilla/5.0 (Windows NT 10.0; Win64; x64) AppleWebKit/537.36 (KHTML, like Gecko) Chrome/81.0.4044.138 Safari/537.36","0.52","","4532","","<img src = 'img/A0-B1-L1-W0.jpg' width = '600'>","0","17","","","","",""
"","html-keyboard-response","37","302930","0.0-3.0-1.16","partial","Female","60","United States of America","","C567071","BA","freqGain","Mozilla/5.0 (Windows NT 10.0; Win64; x64) AppleWebKit/537.36 (KHTML, like Gecko) Chrome/81.0.4044.138 Safari/537.36","0.52","","null","","Ouch, you were stung! You lost <b>-1 </b>point.","","17","null","-1","49","",""
"","html-button-response","38","304289","0.0-3.0-0.17","partial","Female","60","United States of America","","C567071","BA","freqGain","Mozilla/5.0 (Windows NT 10.0; Win64; x64) AppleWebKit/537.36 (KHTML, like Gecko) Chrome/81.0.4044.138 Safari/537.36","0.52","","1358","","<img src = 'img/A0-B1-L1-W1.jpg' width = '600'>","0","18","","","","",""
"","html-keyboard-response","39","306290","0.0-3.0-1.17","partial","Female","60","United States of America","","C567071","BA","freqGain","Mozilla/5.0 (Windows NT 10.0; Win64; x64) AppleWebKit/537.36 (KHTML, like Gecko) Chrome/81.0.4044.138 Safari/537.36","0.52","","null","","Ouch, you were stung! You lost <b>-1 </b>point.","","18","null","-1","48","",""
"","html-button-response","40","307497","0.0-3.0-0.18","partial","Female","60","United States of America","","C567071","BA","freqGain","Mozilla/5.0 (Windows NT 10.0; Win64; x64) AppleWebKit/537.36 (KHTML, like Gecko) Chrome/81.0.4044.138 Safari/537.36","0.52","","1206","","<img src = 'img/A0-B0-L1-W1.jpg' width = '600'>","0","19","","","","",""
"","html-keyboard-response","41","309498","0.0-3.0-1.18","partial","Female","60","United States of America","","C567071","BA","freqGain","Mozilla/5.0 (Windows NT 10.0; Win64; x64) AppleWebKit/537.36 (KHTML, like Gecko) Chrome/81.0.4044.138 Safari/537.36","0.52","","null","","Ouch, you were stung! You lost <b>-1 </b>point.","","19","null","-1","47","",""
"","html-button-response","42","310866","0.0-3.0-0.19","partial","Female","60","United States of America","","C567071","BA","freqGain","Mozilla/5.0 (Windows NT 10.0; Win64; x64) AppleWebKit/537.36 (KHTML, like Gecko) Chrome/81.0.4044.138 Safari/537.36","0.52","","1366","","<img src = 'img/A1-B1-L0-W0.jpg' width = '600'>","0","20","","","","",""
"","html-keyboard-response","43","312867","0.0-3.0-1.19","partial","Female","60","United States of America","","C567071","BA","freqGain","Mozilla/5.0 (Windows NT 10.0; Win64; x64) AppleWebKit/537.36 (KHTML, like Gecko) Chrome/81.0.4044.138 Safari/537.36","0.52","","null","","You successfully harvested honey! You earned <b>3 </b>points.","","20","null","3","50","",""
"","html-button-response","44","313962","0.0-3.0-0.20","partial","Female","60","United States of America","","C567071","BA","freqGain","Mozilla/5.0 (Windows NT 10.0; Win64; x64) AppleWebKit/537.36 (KHTML, like Gecko) Chrome/81.0.4044.138 Safari/537.36","0.52","","1093","","<img src = 'img/A1-B0-L1-W1.jpg' width = '600'>","0","21","","","","",""
"","html-keyboard-response","45","315963","0.0-3.0-1.20","partial","Female","60","United States of America","","C567071","BA","freqGain","Mozilla/5.0 (Windows NT 10.0; Win64; x64) AppleWebKit/537.36 (KHTML, like Gecko) Chrome/81.0.4044.138 Safari/537.36","0.52","","null","","Ouch, you were stung! You lost <b>-1 </b>point.","","21","null","-1","49","",""
"","html-button-response","46","317513","0.0-3.0-0.21","partial","Female","60","United States of America","","C567071","BA","freqGain","Mozilla/5.0 (Windows NT 10.0; Win64; x64) AppleWebKit/537.36 (KHTML, like Gecko) Chrome/81.0.4044.138 Safari/537.36","0.52","","1549","","<img src = 'img/A0-B0-L0-W0.jpg' width = '600'>","0","22","","","","",""
"","html-keyboard-response","47","319515","0.0-3.0-1.21","partial","Female","60","United States of America","","C567071","BA","freqGain","Mozilla/5.0 (Windows NT 10.0; Win64; x64) AppleWebKit/537.36 (KHTML, like Gecko) Chrome/81.0.4044.138 Safari/537.36","0.52","","null","","Ouch, you were stung! You lost <b>-1 </b>point.","","22","null","-1","48","",""
"","html-button-response","48","320922","0.0-3.0-0.22","partial","Female","60","United States of America","","C567071","BA","freqGain","Mozilla/5.0 (Windows NT 10.0; Win64; x64) AppleWebKit/537.36 (KHTML, like Gecko) Chrome/81.0.4044.138 Safari/537.36","0.52","","1405","","<img src = 'img/A1-B1-L1-W0.jpg' width = '600'>","0","23","","","","",""
"","html-keyboard-response","49","322922","0.0-3.0-1.22","partial","Female","60","United States of America","","C567071","BA","freqGain","Mozilla/5.0 (Windows NT 10.0; Win64; x64) AppleWebKit/537.36 (KHTML, like Gecko) Chrome/81.0.4044.138 Safari/537.36","0.52","","null","","You successfully harvested honey! You earned <b>3 </b>points.","","23","null","3","51","",""
"","html-button-response","50","324090","0.0-3.0-0.23","partial","Female","60","United States of America","","C567071","BA","freqGain","Mozilla/5.0 (Windows NT 10.0; Win64; x64) AppleWebKit/537.36 (KHTML, like Gecko) Chrome/81.0.4044.138 Safari/537.36","0.52","","1166","","<img src = 'img/A0-B0-L1-W0.jpg' width = '600'>","0","24","","","","",""
"","html-keyboard-response","51","326091","0.0-3.0-1.23","partial","Female","60","United States of America","","C567071","BA","freqGain","Mozilla/5.0 (Windows NT 10.0; Win64; x64) AppleWebKit/537.36 (KHTML, like Gecko) Chrome/81.0.4044.138 Safari/537.36","0.52","","null","","Ouch, you were stung! You lost <b>-1 </b>point.","","24","null","-1","50","",""
"","html-button-response","52","327817","0.0-3.0-0.24","partial","Female","60","United States of America","","C567071","BA","freqGain","Mozilla/5.0 (Windows NT 10.0; Win64; x64) AppleWebKit/537.36 (KHTML, like Gecko) Chrome/81.0.4044.138 Safari/537.36","0.52","","1725","","<img src = 'img/A1-B1-L0-W1.jpg' width = '600'>","0","25","","","","",""
"","html-keyboard-response","53","329819","0.0-3.0-1.24","partial","Female","60","United States of America","","C567071","BA","freqGain","Mozilla/5.0 (Windows NT 10.0; Win64; x64) AppleWebKit/537.36 (KHTML, like Gecko) Chrome/81.0.4044.138 Safari/537.36","0.52","","null","","You successfully harvested honey! You earned <b>3 </b>points.","","25","null","3","53","",""
"","html-button-response","54","331185","0.0-3.0-0.25","partial","Female","60","United States of America","","C567071","BA","freqGain","Mozilla/5.0 (Windows NT 10.0; Win64; x64) AppleWebKit/537.36 (KHTML, like Gecko) Chrome/81.0.4044.138 Safari/537.36","0.52","","1365","","<img src = 'img/A0-B1-L0-W0.jpg' width = '600'>","0","26","","","","",""
"","html-keyboard-response","55","333187","0.0-3.0-1.25","partial","Female","60","United States of America","","C567071","BA","freqGain","Mozilla/5.0 (Windows NT 10.0; Win64; x64) AppleWebKit/537.36 (KHTML, like Gecko) Chrome/81.0.4044.138 Safari/537.36","0.52","","null","","Ouch, you were stung! You lost <b>-1 </b>point.","","26","null","-1","52","",""
"","html-button-response","56","334409","0.0-3.0-0.26","partial","Female","60","United States of America","","C567071","BA","freqGain","Mozilla/5.0 (Windows NT 10.0; Win64; x64) AppleWebKit/537.36 (KHTML, like Gecko) Chrome/81.0.4044.138 Safari/537.36","0.52","","1221","","<img src = 'img/A1-B0-L1-W0.jpg' width = '600'>","0","27","","","","",""
"","html-keyboard-response","57","336411","0.0-3.0-1.26","partial","Female","60","United States of America","","C567071","BA","freqGain","Mozilla/5.0 (Windows NT 10.0; Win64; x64) AppleWebKit/537.36 (KHTML, like Gecko) Chrome/81.0.4044.138 Safari/537.36","0.52","","null","","Ouch, you were stung! You lost <b>-1 </b>point.","","27","null","-1","51","",""
"","html-button-response","58","338249","0.0-3.0-0.27","partial","Female","60","United States of America","","C567071","BA","freqGain","Mozilla/5.0 (Windows NT 10.0; Win64; x64) AppleWebKit/537.36 (KHTML, like Gecko) Chrome/81.0.4044.138 Safari/537.36","0.52","","1837","","<img src = 'img/A0-B0-L0-W1.jpg' width = '600'>","0","28","","","","",""
"","html-keyboard-response","59","340251","0.0-3.0-1.27","partial","Female","60","United States of America","","C567071","BA","freqGain","Mozilla/5.0 (Windows NT 10.0; Win64; x64) AppleWebKit/537.36 (KHTML, like Gecko) Chrome/81.0.4044.138 Safari/537.36","0.52","","null","","Ouch, you were stung! You lost <b>-1 </b>point.","","28","null","-1","50","",""
"","html-button-response","60","342649","0.0-3.0-0.28","partial","Female","60","United States of America","","C567071","BA","freqGain","Mozilla/5.0 (Windows NT 10.0; Win64; x64) AppleWebKit/537.36 (KHTML, like Gecko) Chrome/81.0.4044.138 Safari/537.36","0.52","","2397","","<img src = 'img/A1-B0-L0-W0.jpg' width = '600'>","1","29","","","","",""
"","html-keyboard-response","61","344652","0.0-3.0-1.28","partial","Female","60","United States of America","","C567071","BA","freqGain","Mozilla/5.0 (Windows NT 10.0; Win64; x64) AppleWebKit/537.36 (KHTML, like Gecko) Chrome/81.0.4044.138 Safari/537.36","0.52","","null","","You avoided this hive. You earned <b>0 </b>points.","","29","null","0","50","",""
"","html-button-response","62","346257","0.0-3.0-0.29","partial","Female","60","United States of America","","C567071","BA","freqGain","Mozilla/5.0 (Windows NT 10.0; Win64; x64) AppleWebKit/537.36 (KHTML, like Gecko) Chrome/81.0.4044.138 Safari/537.36","0.52","","1604","","<img src = 'img/A1-B0-L0-W1.jpg' width = '600'>","0","30","","","","",""
"","html-keyboard-response","63","348259","0.0-3.0-1.29","partial","Female","60","United States of America","","C567071","BA","freqGain","Mozilla/5.0 (Windows NT 10.0; Win64; x64) AppleWebKit/537.36 (KHTML, like Gecko) Chrome/81.0.4044.138 Safari/537.36","0.52","","null","","Ouch, you were stung! You lost <b>-1 </b>point.","","30","null","-1","49","",""
"","html-button-response","64","349313","0.0-3.0-0.30","partial","Female","60","United States of America","","C567071","BA","freqGain","Mozilla/5.0 (Windows NT 10.0; Win64; x64) AppleWebKit/537.36 (KHTML, like Gecko) Chrome/81.0.4044.138 Safari/537.36","0.52","","1054","","<img src = 'img/A1-B1-L1-W1.jpg' width = '600'>","0","31","","","","",""
"","html-keyboard-response","65","351314","0.0-3.0-1.30","partial","Female","60","United States of America","","C567071","BA","freqGain","Mozilla/5.0 (Windows NT 10.0; Win64; x64) AppleWebKit/537.36 (KHTML, like Gecko) Chrome/81.0.4044.138 Safari/537.36","0.52","","null","","You successfully harvested honey! You earned <b>3 </b>points.","","31","null","3","52","",""
"","html-button-response","66","352873","0.0-3.0-0.31","partial","Female","60","United States of America","","C567071","BA","freqGain","Mozilla/5.0 (Windows NT 10.0; Win64; x64) AppleWebKit/537.36 (KHTML, like Gecko) Chrome/81.0.4044.138 Safari/537.36","0.52","","1558","","<img src = 'img/A0-B1-L0-W1.jpg' width = '600'>","0","32","","","","",""
"","html-keyboard-response","67","354875","0.0-3.0-1.31","partial","Female","60","United States of America","","C567071","BA","freqGain","Mozilla/5.0 (Windows NT 10.0; Win64; x64) AppleWebKit/537.36 (KHTML, like Gecko) Chrome/81.0.4044.138 Safari/537.36","0.52","","null","","Ouch, you were stung! You lost <b>-1 </b>point.","","32","null","-1","51","",""
"","html-button-response","68","357809","0.0-3.0-0.32","partial","Female","60","United States of America","","C567071","BA","freqGain","Mozilla/5.0 (Windows NT 10.0; Win64; x64) AppleWebKit/537.36 (KHTML, like Gecko) Chrome/81.0.4044.138 Safari/537.36","0.52","","2933","","<img src = 'img/A1-B0-L1-W1.jpg' width = '600'>","0","33","","","","",""
"","html-keyboard-response","69","359812","0.0-3.0-1.32","partial","Female","60","United States of America","","C567071","BA","freqGain","Mozilla/5.0 (Windows NT 10.0; Win64; x64) AppleWebKit/537.36 (KHTML, like Gecko) Chrome/81.0.4044.138 Safari/537.36","0.52","","null","","Ouch, you were stung! You lost <b>-1 </b>point.","","33","null","-1","50","",""
"","html-button-response","70","360969","0.0-3.0-0.33","partial","Female","60","United States of America","","C567071","BA","freqGain","Mozilla/5.0 (Windows NT 10.0; Win64; x64) AppleWebKit/537.36 (KHTML, like Gecko) Chrome/81.0.4044.138 Safari/537.36","0.52","","1156","","<img src = 'img/A1-B1-L1-W1.jpg' width = '600'>","0","34","","","","",""
"","html-keyboard-response","71","362971","0.0-3.0-1.33","partial","Female","60","United States of America","","C567071","BA","freqGain","Mozilla/5.0 (Windows NT 10.0; Win64; x64) AppleWebKit/537.36 (KHTML, like Gecko) Chrome/81.0.4044.138 Safari/537.36","0.52","","null","","You successfully harvested honey! You earned <b>3 </b>points.","","34","null","3","53","",""
"","html-button-response","72","363993","0.0-3.0-0.34","partial","Female","60","United States of America","","C567071","BA","freqGain","Mozilla/5.0 (Windows NT 10.0; Win64; x64) AppleWebKit/537.36 (KHTML, like Gecko) Chrome/81.0.4044.138 Safari/537.36","0.52","","1021","","<img src = 'img/A0-B1-L1-W1.jpg' width = '600'>","0","35","","","","",""
"","html-keyboard-response","73","365995","0.0-3.0-1.34","partial","Female","60","United States of America","","C567071","BA","freqGain","Mozilla/5.0 (Windows NT 10.0; Win64; x64) AppleWebKit/537.36 (KHTML, like Gecko) Chrome/81.0.4044.138 Safari/537.36","0.52","","null","","Ouch, you were stung! You lost <b>-1 </b>point.","","35","null","-1","52","",""
"","html-button-response","74","367209","0.0-3.0-0.35","partial","Female","60","United States of America","","C567071","BA","freqGain","Mozilla/5.0 (Windows NT 10.0; Win64; x64) AppleWebKit/537.36 (KHTML, like Gecko) Chrome/81.0.4044.138 Safari/537.36","0.52","","1214","","<img src = 'img/A1-B1-L0-W0.jpg' width = '600'>","0","36","","","","",""
"","html-keyboard-response","75","369211","0.0-3.0-1.35","partial","Female","60","United States of America","","C567071","BA","freqGain","Mozilla/5.0 (Windows NT 10.0; Win64; x64) AppleWebKit/537.36 (KHTML, like Gecko) Chrome/81.0.4044.138 Safari/537.36","0.52","","null","","You successfully harvested honey! You earned <b>3 </b>points.","","36","null","3","55","",""
"","html-button-response","76","370433","0.0-3.0-0.36","partial","Female","60","United States of America","","C567071","BA","freqGain","Mozilla/5.0 (Windows NT 10.0; Win64; x64) AppleWebKit/537.36 (KHTML, like Gecko) Chrome/81.0.4044.138 Safari/537.36","0.52","","1221","","<img src = 'img/A0-B1-L1-W0.jpg' width = '600'>","0","37","","","","",""
"","html-keyboard-response","77","372435","0.0-3.0-1.36","partial","Female","60","United States of America","","C567071","BA","freqGain","Mozilla/5.0 (Windows NT 10.0; Win64; x64) AppleWebKit/537.36 (KHTML, like Gecko) Chrome/81.0.4044.138 Safari/537.36","0.52","","null","","Ouch, you were stung! You lost <b>-1 </b>point.","","37","null","-1","54","",""
"","html-button-response","78","373426","0.0-3.0-0.37","partial","Female","60","United States of America","","C567071","BA","freqGain","Mozilla/5.0 (Windows NT 10.0; Win64; x64) AppleWebKit/537.36 (KHTML, like Gecko) Chrome/81.0.4044.138 Safari/537.36","0.52","","990","","<img src = 'img/A0-B0-L0-W0.jpg' width = '600'>","0","38","","","","",""
"","html-keyboard-response","79","375428","0.0-3.0-1.37","partial","Female","60","United States of America","","C567071","BA","freqGain","Mozilla/5.0 (Windows NT 10.0; Win64; x64) AppleWebKit/537.36 (KHTML, like Gecko) Chrome/81.0.4044.138 Safari/537.36","0.52","","null","","Ouch, you were stung! You lost <b>-1 </b>point.","","38","null","-1","53","",""
"","html-button-response","80","376682","0.0-3.0-0.38","partial","Female","60","United States of America","","C567071","BA","freqGain","Mozilla/5.0 (Windows NT 10.0; Win64; x64) AppleWebKit/537.36 (KHTML, like Gecko) Chrome/81.0.4044.138 Safari/537.36","0.52","","1253","","<img src = 'img/A0-B1-L0-W1.jpg' width = '600'>","0","39","","","","",""
"","html-keyboard-response","81","378683","0.0-3.0-1.38","partial","Female","60","United States of America","","C567071","BA","freqGain","Mozilla/5.0 (Windows NT 10.0; Win64; x64) AppleWebKit/537.36 (KHTML, like Gecko) Chrome/81.0.4044.138 Safari/537.36","0.52","","null","","Ouch, you were stung! You lost <b>-1 </b>point.","","39","null","-1","52","",""
"","html-button-response","82","379905","0.0-3.0-0.39","partial","Female","60","United States of America","","C567071","BA","freqGain","Mozilla/5.0 (Windows NT 10.0; Win64; x64) AppleWebKit/537.36 (KHTML, like Gecko) Chrome/81.0.4044.138 Safari/537.36","0.52","","1221","","<img src = 'img/A0-B0-L0-W1.jpg' width = '600'>","0","40","","","","",""
"","html-keyboard-response","83","381906","0.0-3.0-1.39","partial","Female","60","United States of America","","C567071","BA","freqGain","Mozilla/5.0 (Windows NT 10.0; Win64; x64) AppleWebKit/537.36 (KHTML, like Gecko) Chrome/81.0.4044.138 Safari/537.36","0.52","","null","","Ouch, you were stung! You lost <b>-1 </b>point.","","40","null","-1","51","",""
"","html-button-response","84","383257","0.0-3.0-0.40","partial","Female","60","United States of America","","C567071","BA","freqGain","Mozilla/5.0 (Windows NT 10.0; Win64; x64) AppleWebKit/537.36 (KHTML, like Gecko) Chrome/81.0.4044.138 Safari/537.36","0.52","","1350","","<img src = 'img/A1-B1-L0-W1.jpg' width = '600'>","0","41","","","","",""
"","html-keyboard-response","85","385259","0.0-3.0-1.40","partial","Female","60","United States of America","","C567071","BA","freqGain","Mozilla/5.0 (Windows NT 10.0; Win64; x64) AppleWebKit/537.36 (KHTML, like Gecko) Chrome/81.0.4044.138 Safari/537.36","0.52","","null","","You successfully harvested honey! You earned <b>3 </b>points.","","41","null","3","54","",""
"","html-button-response","86","386401","0.0-3.0-0.41","partial","Female","60","United States of America","","C567071","BA","freqGain","Mozilla/5.0 (Windows NT 10.0; Win64; x64) AppleWebKit/537.36 (KHTML, like Gecko) Chrome/81.0.4044.138 Safari/537.36","0.52","","1142","","<img src = 'img/A0-B1-L0-W0.jpg' width = '600'>","0","42","","","","",""
"","html-keyboard-response","87","388403","0.0-3.0-1.41","partial","Female","60","United States of America","","C567071","BA","freqGain","Mozilla/5.0 (Windows NT 10.0; Win64; x64) AppleWebKit/537.36 (KHTML, like Gecko) Chrome/81.0.4044.138 Safari/537.36","0.52","","null","","Ouch, you were stung! You lost <b>-1 </b>point.","","42","null","-1","53","",""
"","html-button-response","88","389545","0.0-3.0-0.42","partial","Female","60","United States of America","","C567071","BA","freqGain","Mozilla/5.0 (Windows NT 10.0; Win64; x64) AppleWebKit/537.36 (KHTML, like Gecko) Chrome/81.0.4044.138 Safari/537.36","0.52","","1141","","<img src = 'img/A0-B0-L1-W0.jpg' width = '600'>","0","43","","","","",""
"","html-keyboard-response","89","391547","0.0-3.0-1.42","partial","Female","60","United States of America","","C567071","BA","freqGain","Mozilla/5.0 (Windows NT 10.0; Win64; x64) AppleWebKit/537.36 (KHTML, like Gecko) Chrome/81.0.4044.138 Safari/537.36","0.52","","null","","Ouch, you were stung! You lost <b>-1 </b>point.","","43","null","-1","52","",""
"","html-button-response","90","392665","0.0-3.0-0.43","partial","Female","60","United States of America","","C567071","BA","freqGain","Mozilla/5.0 (Windows NT 10.0; Win64; x64) AppleWebKit/537.36 (KHTML, like Gecko) Chrome/81.0.4044.138 Safari/537.36","0.52","","1117","","<img src = 'img/A1-B0-L0-W1.jpg' width = '600'>","0","44","","","","",""
"","html-keyboard-response","91","394666","0.0-3.0-1.43","partial","Female","60","United States of America","","C567071","BA","freqGain","Mozilla/5.0 (Windows NT 10.0; Win64; x64) AppleWebKit/537.36 (KHTML, like Gecko) Chrome/81.0.4044.138 Safari/537.36","0.52","","null","","Ouch, you were stung! You lost <b>-1 </b>point.","","44","null","-1","51","",""
"","html-button-response","92","396249","0.0-3.0-0.44","partial","Female","60","United States of America","","C567071","BA","freqGain","Mozilla/5.0 (Windows NT 10.0; Win64; x64) AppleWebKit/537.36 (KHTML, like Gecko) Chrome/81.0.4044.138 Safari/537.36","0.52","","1582","","<img src = 'img/A1-B0-L1-W0.jpg' width = '600'>","0","45","","","","",""
"","html-keyboard-response","93","398250","0.0-3.0-1.44","partial","Female","60","United States of America","","C567071","BA","freqGain","Mozilla/5.0 (Windows NT 10.0; Win64; x64) AppleWebKit/537.36 (KHTML, like Gecko) Chrome/81.0.4044.138 Safari/537.36","0.52","","null","","Ouch, you were stung! You lost <b>-1 </b>point.","","45","null","-1","50","",""
"","html-button-response","94","399369","0.0-3.0-0.45","partial","Female","60","United States of America","","C567071","BA","freqGain","Mozilla/5.0 (Windows NT 10.0; Win64; x64) AppleWebKit/537.36 (KHTML, like Gecko) Chrome/81.0.4044.138 Safari/537.36","0.52","","1118","","<img src = 'img/A1-B0-L0-W0.jpg' width = '600'>","0","46","","","","",""
"","html-keyboard-response","95","401371","0.0-3.0-1.45","partial","Female","60","United States of America","","C567071","BA","freqGain","Mozilla/5.0 (Windows NT 10.0; Win64; x64) AppleWebKit/537.36 (KHTML, like Gecko) Chrome/81.0.4044.138 Safari/537.36","0.52","","null","","Ouch, you were stung! You lost <b>-1 </b>point.","","46","null","-1","49","",""
"","html-button-response","96","402513","0.0-3.0-0.46","partial","Female","60","United States of America","","C567071","BA","freqGain","Mozilla/5.0 (Windows NT 10.0; Win64; x64) AppleWebKit/537.36 (KHTML, like Gecko) Chrome/81.0.4044.138 Safari/537.36","0.52","","1141","","<img src = 'img/A1-B1-L1-W0.jpg' width = '600'>","0","47","","","","",""
"","html-keyboard-response","97","404515","0.0-3.0-1.46","partial","Female","60","United States of America","","C567071","BA","freqGain","Mozilla/5.0 (Windows NT 10.0; Win64; x64) AppleWebKit/537.36 (KHTML, like Gecko) Chrome/81.0.4044.138 Safari/537.36","0.52","","null","","You successfully harvested honey! You earned <b>3 </b>points.","","47","null","3","52","",""
"","html-button-response","98","405633","0.0-3.0-0.47","partial","Female","60","United States of America","","C567071","BA","freqGain","Mozilla/5.0 (Windows NT 10.0; Win64; x64) AppleWebKit/537.36 (KHTML, like Gecko) Chrome/81.0.4044.138 Safari/537.36","0.52","","1117","","<img src = 'img/A0-B0-L1-W1.jpg' width = '600'>","0","48","","","","",""
"","html-keyboard-response","99","407636","0.0-3.0-1.47","partial","Female","60","United States of America","","C567071","BA","freqGain","Mozilla/5.0 (Windows NT 10.0; Win64; x64) AppleWebKit/537.36 (KHTML, like Gecko) Chrome/81.0.4044.138 Safari/537.36","0.52","","null","","Ouch, you were stung! You lost <b>-1 </b>point.","","48","null","-1","51","",""
"","html-button-response","100","408817","0.0-3.0-0.48","partial","Female","60","United States of America","","C567071","BA","freqGain","Mozilla/5.0 (Windows NT 10.0; Win64; x64) AppleWebKit/537.36 (KHTML, like Gecko) Chrome/81.0.4044.138 Safari/537.36","0.52","","1181","","<img src = 'img/A0-B1-L1-W0.jpg' width = '600'>","0","49","","","","",""
"","html-keyboard-response","101","410820","0.0-3.0-1.48","partial","Female","60","United States of America","","C567071","BA","freqGain","Mozilla/5.0 (Windows NT 10.0; Win64; x64) AppleWebKit/537.36 (KHTML, like Gecko) Chrome/81.0.4044.138 Safari/537.36","0.52","","null","","Ouch, you were stung! You lost <b>-1 </b>point.","","49","null","-1","50","",""
"","html-button-response","102","412177","0.0-3.0-0.49","partial","Female","60","United States of America","","C567071","BA","freqGain","Mozilla/5.0 (Windows NT 10.0; Win64; x64) AppleWebKit/537.36 (KHTML, like Gecko) Chrome/81.0.4044.138 Safari/537.36","0.52","","1356","","<img src = 'img/A1-B1-L0-W1.jpg' width = '600'>","0","50","","","","",""
"","html-keyboard-response","103","414179","0.0-3.0-1.49","partial","Female","60","United States of America","","C567071","BA","freqGain","Mozilla/5.0 (Windows NT 10.0; Win64; x64) AppleWebKit/537.36 (KHTML, like Gecko) Chrome/81.0.4044.138 Safari/537.36","0.52","","null","","You successfully harvested honey! You earned <b>3 </b>points.","","50","null","3","53","",""
"","html-button-response","104","415377","0.0-3.0-0.50","partial","Female","60","United States of America","","C567071","BA","freqGain","Mozilla/5.0 (Windows NT 10.0; Win64; x64) AppleWebKit/537.36 (KHTML, like Gecko) Chrome/81.0.4044.138 Safari/537.36","0.52","","1197","","<img src = 'img/A1-B1-L0-W0.jpg' width = '600'>","0","51","","","","",""
"","html-keyboard-response","105","417378","0.0-3.0-1.50","partial","Female","60","United States of America","","C567071","BA","freqGain","Mozilla/5.0 (Windows NT 10.0; Win64; x64) AppleWebKit/537.36 (KHTML, like Gecko) Chrome/81.0.4044.138 Safari/537.36","0.52","","null","","You successfully harvested honey! You earned <b>3 </b>points.","","51","null","3","56","",""
"","html-button-response","106","418441","0.0-3.0-0.51","partial","Female","60","United States of America","","C567071","BA","freqGain","Mozilla/5.0 (Windows NT 10.0; Win64; x64) AppleWebKit/537.36 (KHTML, like Gecko) Chrome/81.0.4044.138 Safari/537.36","0.52","","1062","","<img src = 'img/A0-B0-L1-W1.jpg' width = '600'>","0","52","","","","",""
"","html-keyboard-response","107","420442","0.0-3.0-1.51","partial","Female","60","United States of America","","C567071","BA","freqGain","Mozilla/5.0 (Windows NT 10.0; Win64; x64) AppleWebKit/537.36 (KHTML, like Gecko) Chrome/81.0.4044.138 Safari/537.36","0.52","","null","","Ouch, you were stung! You lost <b>-1 </b>point.","","52","null","-1","55","",""
"","html-button-response","108","421377","0.0-3.0-0.52","partial","Female","60","United States of America","","C567071","BA","freqGain","Mozilla/5.0 (Windows NT 10.0; Win64; x64) AppleWebKit/537.36 (KHTML, like Gecko) Chrome/81.0.4044.138 Safari/537.36","0.52","","934","","<img src = 'img/A1-B0-L1-W1.jpg' width = '600'>","0","53","","","","",""
"","html-keyboard-response","109","423379","0.0-3.0-1.52","partial","Female","60","United States of America","","C567071","BA","freqGain","Mozilla/5.0 (Windows NT 10.0; Win64; x64) AppleWebKit/537.36 (KHTML, like Gecko) Chrome/81.0.4044.138 Safari/537.36","0.52","","null","","Ouch, you were stung! You lost <b>-1 </b>point.","","53","null","-1","54","",""
"","html-button-response","110","424193","0.0-3.0-0.53","partial","Female","60","United States of America","","C567071","BA","freqGain","Mozilla/5.0 (Windows NT 10.0; Win64; x64) AppleWebKit/537.36 (KHTML, like Gecko) Chrome/81.0.4044.138 Safari/537.36","0.52","","814","","<img src = 'img/A1-B0-L0-W0.jpg' width = '600'>","0","54","","","","",""
"","html-keyboard-response","111","426194","0.0-3.0-1.53","partial","Female","60","United States of America","","C567071","BA","freqGain","Mozilla/5.0 (Windows NT 10.0; Win64; x64) AppleWebKit/537.36 (KHTML, like Gecko) Chrome/81.0.4044.138 Safari/537.36","0.52","","null","","Ouch, you were stung! You lost <b>-1 </b>point.","","54","null","-1","53","",""
"","html-button-response","112","427017","0.0-3.0-0.54","partial","Female","60","United States of America","","C567071","BA","freqGain","Mozilla/5.0 (Windows NT 10.0; Win64; x64) AppleWebKit/537.36 (KHTML, like Gecko) Chrome/81.0.4044.138 Safari/537.36","0.52","","822","","<img src = 'img/A0-B0-L0-W0.jpg' width = '600'>","0","55","","","","",""
"","html-keyboard-response","113","429018","0.0-3.0-1.54","partial","Female","60","United States of America","","C567071","BA","freqGain","Mozilla/5.0 (Windows NT 10.0; Win64; x64) AppleWebKit/537.36 (KHTML, like Gecko) Chrome/81.0.4044.138 Safari/537.36","0.52","","null","","Ouch, you were stung! You lost <b>-1 </b>point.","","55","null","-1","52","",""
"","html-button-response","114","429881","0.0-3.0-0.55","partial","Female","60","United States of America","","C567071","BA","freqGain","Mozilla/5.0 (Windows NT 10.0; Win64; x64) AppleWebKit/537.36 (KHTML, like Gecko) Chrome/81.0.4044.138 Safari/537.36","0.52","","862","","<img src = 'img/A0-B1-L0-W0.jpg' width = '600'>","0","56","","","","",""
"","html-keyboard-response","115","431883","0.0-3.0-1.55","partial","Female","60","United States of America","","C567071","BA","freqGain","Mozilla/5.0 (Windows NT 10.0; Win64; x64) AppleWebKit/537.36 (KHTML, like Gecko) Chrome/81.0.4044.138 Safari/537.36","0.52","","null","","Ouch, you were stung! You lost <b>-1 </b>point.","","56","null","-1","51","",""
"","html-button-response","116","432513","0.0-3.0-0.56","partial","Female","60","United States of America","","C567071","BA","freqGain","Mozilla/5.0 (Windows NT 10.0; Win64; x64) AppleWebKit/537.36 (KHTML, like Gecko) Chrome/81.0.4044.138 Safari/537.36","0.52","","630","","<img src = 'img/A1-B0-L0-W1.jpg' width = '600'>","0","57","","","","",""
"","html-keyboard-response","117","434515","0.0-3.0-1.56","partial","Female","60","United States of America","","C567071","BA","freqGain","Mozilla/5.0 (Windows NT 10.0; Win64; x64) AppleWebKit/537.36 (KHTML, like Gecko) Chrome/81.0.4044.138 Safari/537.36","0.52","","null","","Ouch, you were stung! You lost <b>-1 </b>point.","","57","null","-1","50","",""
"","html-button-response","118","435233","0.0-3.0-0.57","partial","Female","60","United States of America","","C567071","BA","freqGain","Mozilla/5.0 (Windows NT 10.0; Win64; x64) AppleWebKit/537.36 (KHTML, like Gecko) Chrome/81.0.4044.138 Safari/537.36","0.52","","717","","<img src = 'img/A1-B1-L1-W1.jpg' width = '600'>","0","58","","","","",""
"","html-keyboard-response","119","437236","0.0-3.0-1.57","partial","Female","60","United States of America","","C567071","BA","freqGain","Mozilla/5.0 (Windows NT 10.0; Win64; x64) AppleWebKit/537.36 (KHTML, like Gecko) Chrome/81.0.4044.138 Safari/537.36","0.52","","null","","You successfully harvested honey! You earned <b>3 </b>points.","","58","null","3","53","",""
"","html-button-response","120","438937","0.0-3.0-0.58","partial","Female","60","United States of America","","C567071","BA","freqGain","Mozilla/5.0 (Windows NT 10.0; Win64; x64) AppleWebKit/537.36 (KHTML, like Gecko) Chrome/81.0.4044.138 Safari/537.36","0.52","","1701","","<img src = 'img/A0-B0-L1-W0.jpg' width = '600'>","1","59","","","","",""
"","html-keyboard-response","121","440939","0.0-3.0-1.58","partial","Female","60","United States of America","","C567071","BA","freqGain","Mozilla/5.0 (Windows NT 10.0; Win64; x64) AppleWebKit/537.36 (KHTML, like Gecko) Chrome/81.0.4044.138 Safari/537.36","0.52","","null","","You avoided this hive. You earned <b>0 </b>points.","","59","null","0","53","",""
"","html-button-response","122","442361","0.0-3.0-0.59","partial","Female","60","United States of America","","C567071","BA","freqGain","Mozilla/5.0 (Windows NT 10.0; Win64; x64) AppleWebKit/537.36 (KHTML, like Gecko) Chrome/81.0.4044.138 Safari/537.36","0.52","","1421","","<img src = 'img/A1-B1-L1-W0.jpg' width = '600'>","1","60","","","","",""
"","html-keyboard-response","123","444363","0.0-3.0-1.59","partial","Female","60","United States of America","","C567071","BA","freqGain","Mozilla/5.0 (Windows NT 10.0; Win64; x64) AppleWebKit/537.36 (KHTML, like Gecko) Chrome/81.0.4044.138 Safari/537.36","0.52","","null","","You avoided this hive. You earned <b>0 </b>points.","","60","null","0","53","",""
"","html-button-response","124","446497","0.0-3.0-0.60","partial","Female","60","United States of America","","C567071","BA","freqGain","Mozilla/5.0 (Windows NT 10.0; Win64; x64) AppleWebKit/537.36 (KHTML, like Gecko) Chrome/81.0.4044.138 Safari/537.36","0.52","","2133","","<img src = 'img/A0-B0-L0-W1.jpg' width = '600'>","0","61","","","","",""
"","html-keyboard-response","125","448500","0.0-3.0-1.60","partial","Female","60","United States of America","","C567071","BA","freqGain","Mozilla/5.0 (Windows NT 10.0; Win64; x64) AppleWebKit/537.36 (KHTML, like Gecko) Chrome/81.0.4044.138 Safari/537.36","0.52","","null","","Ouch, you were stung! You lost <b>-1 </b>point.","","61","null","-1","52","",""
"","html-button-response","126","450345","0.0-3.0-0.61","partial","Female","60","United States of America","","C567071","BA","freqGain","Mozilla/5.0 (Windows NT 10.0; Win64; x64) AppleWebKit/537.36 (KHTML, like Gecko) Chrome/81.0.4044.138 Safari/537.36","0.52","","1845","","<img src = 'img/A0-B1-L0-W1.jpg' width = '600'>","0","62","","","","",""
"","html-keyboard-response","127","452346","0.0-3.0-1.61","partial","Female","60","United States of America","","C567071","BA","freqGain","Mozilla/5.0 (Windows NT 10.0; Win64; x64) AppleWebKit/537.36 (KHTML, like Gecko) Chrome/81.0.4044.138 Safari/537.36","0.52","","null","","Ouch, you were stung! You lost <b>-1 </b>point.","","62","null","-1","51","",""
"","html-button-response","128","452961","0.0-3.0-0.62","partial","Female","60","United States of America","","C567071","BA","freqGain","Mozilla/5.0 (Windows NT 10.0; Win64; x64) AppleWebKit/537.36 (KHTML, like Gecko) Chrome/81.0.4044.138 Safari/537.36","0.52","","614","","<img src = 'img/A1-B0-L1-W0.jpg' width = '600'>","0","63","","","","",""
"","html-keyboard-response","129","454963","0.0-3.0-1.62","partial","Female","60","United States of America","","C567071","BA","freqGain","Mozilla/5.0 (Windows NT 10.0; Win64; x64) AppleWebKit/537.36 (KHTML, like Gecko) Chrome/81.0.4044.138 Safari/537.36","0.52","","null","","Ouch, you were stung! You lost <b>-1 </b>point.","","63","null","-1","50","",""
"","html-button-response","130","457129","0.0-3.0-0.63","partial","Female","60","United States of America","","C567071","BA","freqGain","Mozilla/5.0 (Windows NT 10.0; Win64; x64) AppleWebKit/537.36 (KHTML, like Gecko) Chrome/81.0.4044.138 Safari/537.36","0.52","","2164","","<img src = 'img/A0-B1-L1-W1.jpg' width = '600'>","1","64","","","","",""
"","html-keyboard-response","131","459131","0.0-3.0-1.63","partial","Female","60","United States of America","","C567071","BA","freqGain","Mozilla/5.0 (Windows NT 10.0; Win64; x64) AppleWebKit/537.36 (KHTML, like Gecko) Chrome/81.0.4044.138 Safari/537.36","0.52","","null","","You avoided this hive. You earned <b>0 </b>points.","","64","null","0","50","",""
"","html-button-response","132","459865","0.0-3.0-0.64","partial","Female","60","United States of America","","C567071","BA","freqGain","Mozilla/5.0 (Windows NT 10.0; Win64; x64) AppleWebKit/537.36 (KHTML, like Gecko) Chrome/81.0.4044.138 Safari/537.36","0.52","","734","","<img src = 'img/A1-B0-L0-W0.jpg' width = '600'>","1","65","","","","",""
"","html-keyboard-response","133","461866","0.0-3.0-1.64","partial","Female","60","United States of America","","C567071","BA","freqGain","Mozilla/5.0 (Windows NT 10.0; Win64; x64) AppleWebKit/537.36 (KHTML, like Gecko) Chrome/81.0.4044.138 Safari/537.36","0.52","","null","","You avoided this hive. You earned <b>0 </b>points.","","65","null","0","50","",""
"","html-button-response","134","464313","0.0-3.0-0.65","partial","Female","60","United States of America","","C567071","BA","freqGain","Mozilla/5.0 (Windows NT 10.0; Win64; x64) AppleWebKit/537.36 (KHTML, like Gecko) Chrome/81.0.4044.138 Safari/537.36","0.52","","2446","","<img src = 'img/A0-B1-L0-W1.jpg' width = '600'>","0","66","","","","",""
"","html-keyboard-response","135","466316","0.0-3.0-1.65","partial","Female","60","United States of America","","C567071","BA","freqGain","Mozilla/5.0 (Windows NT 10.0; Win64; x64) AppleWebKit/537.36 (KHTML, like Gecko) Chrome/81.0.4044.138 Safari/537.36","0.52","","null","","Ouch, you were stung! You lost <b>-1 </b>point.","","66","null","-1","49","",""
"","html-button-response","136","467817","0.0-3.0-0.66","partial","Female","60","United States of America","","C567071","BA","freqGain","Mozilla/5.0 (Windows NT 10.0; Win64; x64) AppleWebKit/537.36 (KHTML, like Gecko) Chrome/81.0.4044.138 Safari/537.36","0.52","","1500","","<img src = 'img/A1-B0-L1-W0.jpg' width = '600'>","1","67","","","","",""
"","html-keyboard-response","137","469819","0.0-3.0-1.66","partial","Female","60","United States of America","","C567071","BA","freqGain","Mozilla/5.0 (Windows NT 10.0; Win64; x64) AppleWebKit/537.36 (KHTML, like Gecko) Chrome/81.0.4044.138 Safari/537.36","0.52","","null","","You avoided this hive. You earned <b>0 </b>points.","","67","null","0","49","",""
"","html-button-response","138","470993","0.0-3.0-0.67","partial","Female","60","United States of America","","C567071","BA","freqGain","Mozilla/5.0 (Windows NT 10.0; Win64; x64) AppleWebKit/537.36 (KHTML, like Gecko) Chrome/81.0.4044.138 Safari/537.36","0.52","","1173","","<img src = 'img/A0-B0-L1-W1.jpg' width = '600'>","1","68","","","","",""
"","html-keyboard-response","139","472995","0.0-3.0-1.67","partial","Female","60","United States of America","","C567071","BA","freqGain","Mozilla/5.0 (Windows NT 10.0; Win64; x64) AppleWebKit/537.36 (KHTML, like Gecko) Chrome/81.0.4044.138 Safari/537.36","0.52","","null","","You avoided this hive. You earned <b>0 </b>points.","","68","null","0","49","",""
"","html-button-response","140","473905","0.0-3.0-0.68","partial","Female","60","United States of America","","C567071","BA","freqGain","Mozilla/5.0 (Windows NT 10.0; Win64; x64) AppleWebKit/537.36 (KHTML, like Gecko) Chrome/81.0.4044.138 Safari/537.36","0.52","","909","","<img src = 'img/A0-B0-L1-W0.jpg' width = '600'>","1","69","","","","",""
"","html-keyboard-response","141","475907","0.0-3.0-1.68","partial","Female","60","United States of America","","C567071","BA","freqGain","Mozilla/5.0 (Windows NT 10.0; Win64; x64) AppleWebKit/537.36 (KHTML, like Gecko) Chrome/81.0.4044.138 Safari/537.36","0.52","","null","","You avoided this hive. You earned <b>0 </b>points.","","69","null","0","49","",""
"","html-button-response","142","478321","0.0-3.0-0.69","partial","Female","60","United States of America","","C567071","BA","freqGain","Mozilla/5.0 (Windows NT 10.0; Win64; x64) AppleWebKit/537.36 (KHTML, like Gecko) Chrome/81.0.4044.138 Safari/537.36","0.52","","2413","","<img src = 'img/A1-B1-L1-W1.jpg' width = '600'>","0","70","","","","",""
"","html-keyboard-response","143","480322","0.0-3.0-1.69","partial","Female","60","United States of America","","C567071","BA","freqGain","Mozilla/5.0 (Windows NT 10.0; Win64; x64) AppleWebKit/537.36 (KHTML, like Gecko) Chrome/81.0.4044.138 Safari/537.36","0.52","","null","","You successfully harvested honey! You earned <b>3 </b>points.","","70","null","3","52","",""
"","html-button-response","144","481105","0.0-3.0-0.70","partial","Female","60","United States of America","","C567071","BA","freqGain","Mozilla/5.0 (Windows NT 10.0; Win64; x64) AppleWebKit/537.36 (KHTML, like Gecko) Chrome/81.0.4044.138 Safari/537.36","0.52","","781","","<img src = 'img/A0-B1-L1-W1.jpg' width = '600'>","0","71","","","","",""
"","html-keyboard-response","145","483106","0.0-3.0-1.70","partial","Female","60","United States of America","","C567071","BA","freqGain","Mozilla/5.0 (Windows NT 10.0; Win64; x64) AppleWebKit/537.36 (KHTML, like Gecko) Chrome/81.0.4044.138 Safari/537.36","0.52","","null","","Ouch, you were stung! You lost <b>-1 </b>point.","","71","null","-1","51","",""
"","html-button-response","146","484753","0.0-3.0-0.71","partial","Female","60","United States of America","","C567071","BA","freqGain","Mozilla/5.0 (Windows NT 10.0; Win64; x64) AppleWebKit/537.36 (KHTML, like Gecko) Chrome/81.0.4044.138 Safari/537.36","0.52","","1646","","<img src = 'img/A1-B1-L0-W0.jpg' width = '600'>","1","72","","","","",""
"","html-keyboard-response","147","486754","0.0-3.0-1.71","partial","Female","60","United States of America","","C567071","BA","freqGain","Mozilla/5.0 (Windows NT 10.0; Win64; x64) AppleWebKit/537.36 (KHTML, like Gecko) Chrome/81.0.4044.138 Safari/537.36","0.52","","null","","You avoided this hive. You earned <b>0 </b>points.","","72","null","0","51","",""
"","html-button-response","148","487521","0.0-3.0-0.72","partial","Female","60","United States of America","","C567071","BA","freqGain","Mozilla/5.0 (Windows NT 10.0; Win64; x64) AppleWebKit/537.36 (KHTML, like Gecko) Chrome/81.0.4044.138 Safari/537.36","0.52","","766","","<img src = 'img/A0-B1-L1-W0.jpg' width = '600'>","1","73","","","","",""
"","html-keyboard-response","149","489523","0.0-3.0-1.72","partial","Female","60","United States of America","","C567071","BA","freqGain","Mozilla/5.0 (Windows NT 10.0; Win64; x64) AppleWebKit/537.36 (KHTML, like Gecko) Chrome/81.0.4044.138 Safari/537.36","0.52","","null","","You avoided this hive. You earned <b>0 </b>points.","","73","null","0","51","",""
"","html-button-response","150","490257","0.0-3.0-0.73","partial","Female","60","United States of America","","C567071","BA","freqGain","Mozilla/5.0 (Windows NT 10.0; Win64; x64) AppleWebKit/537.36 (KHTML, like Gecko) Chrome/81.0.4044.138 Safari/537.36","0.52","","733","","<img src = 'img/A1-B1-L1-W0.jpg' width = '600'>","1","74","","","","",""
"","html-keyboard-response","151","492258","0.0-3.0-1.73","partial","Female","60","United States of America","","C567071","BA","freqGain","Mozilla/5.0 (Windows NT 10.0; Win64; x64) AppleWebKit/537.36 (KHTML, like Gecko) Chrome/81.0.4044.138 Safari/537.36","0.52","","null","","You avoided this hive. You earned <b>0 </b>points.","","74","null","0","51","",""
"","html-button-response","152","494136","0.0-3.0-0.74","partial","Female","60","United States of America","","C567071","BA","freqGain","Mozilla/5.0 (Windows NT 10.0; Win64; x64) AppleWebKit/537.36 (KHTML, like Gecko) Chrome/81.0.4044.138 Safari/537.36","0.52","","1877","","<img src = 'img/A0-B0-L0-W1.jpg' width = '600'>","1","75","","","","",""
"","html-keyboard-response","153","496137","0.0-3.0-1.74","partial","Female","60","United States of America","","C567071","BA","freqGain","Mozilla/5.0 (Windows NT 10.0; Win64; x64) AppleWebKit/537.36 (KHTML, like Gecko) Chrome/81.0.4044.138 Safari/537.36","0.52","","null","","You avoided this hive. You earned <b>0 </b>points.","","75","null","0","51","",""
"","html-button-response","154","498153","0.0-3.0-0.75","partial","Female","60","United States of America","","C567071","BA","freqGain","Mozilla/5.0 (Windows NT 10.0; Win64; x64) AppleWebKit/537.36 (KHTML, like Gecko) Chrome/81.0.4044.138 Safari/537.36","0.52","","2014","","<img src = 'img/A0-B0-L0-W0.jpg' width = '600'>","0","76","","","","",""
"","html-keyboard-response","155","500154","0.0-3.0-1.75","partial","Female","60","United States of America","","C567071","BA","freqGain","Mozilla/5.0 (Windows NT 10.0; Win64; x64) AppleWebKit/537.36 (KHTML, like Gecko) Chrome/81.0.4044.138 Safari/537.36","0.52","","null","","Ouch, you were stung! You lost <b>-1 </b>point.","","76","null","-1","50","",""
"","html-button-response","156","500784","0.0-3.0-0.76","partial","Female","60","United States of America","","C567071","BA","freqGain","Mozilla/5.0 (Windows NT 10.0; Win64; x64) AppleWebKit/537.36 (KHTML, like Gecko) Chrome/81.0.4044.138 Safari/537.36","0.52","","629","","<img src = 'img/A1-B0-L0-W1.jpg' width = '600'>","0","77","","","","",""
"","html-keyboard-response","157","502786","0.0-3.0-1.76","partial","Female","60","United States of America","","C567071","BA","freqGain","Mozilla/5.0 (Windows NT 10.0; Win64; x64) AppleWebKit/537.36 (KHTML, like Gecko) Chrome/81.0.4044.138 Safari/537.36","0.52","","null","","Ouch, you were stung! You lost <b>-1 </b>point.","","77","null","-1","49","",""
"","html-button-response","158","503425","0.0-3.0-0.77","partial","Female","60","United States of America","","C567071","BA","freqGain","Mozilla/5.0 (Windows NT 10.0; Win64; x64) AppleWebKit/537.36 (KHTML, like Gecko) Chrome/81.0.4044.138 Safari/537.36","0.52","","638","","<img src = 'img/A1-B1-L0-W1.jpg' width = '600'>","0","78","","","","",""
"","html-keyboard-response","159","505427","0.0-3.0-1.77","partial","Female","60","United States of America","","C567071","BA","freqGain","Mozilla/5.0 (Windows NT 10.0; Win64; x64) AppleWebKit/537.36 (KHTML, like Gecko) Chrome/81.0.4044.138 Safari/537.36","0.52","","null","","You successfully harvested honey! You earned <b>3 </b>points.","","78","null","3","52","",""
"","html-button-response","160","506072","0.0-3.0-0.78","partial","Female","60","United States of America","","C567071","BA","freqGain","Mozilla/5.0 (Windows NT 10.0; Win64; x64) AppleWebKit/537.36 (KHTML, like Gecko) Chrome/81.0.4044.138 Safari/537.36","0.52","","645","","<img src = 'img/A0-B1-L0-W0.jpg' width = '600'>","0","79","","","","",""
"","html-keyboard-response","161","508074","0.0-3.0-1.78","partial","Female","60","United States of America","","C567071","BA","freqGain","Mozilla/5.0 (Windows NT 10.0; Win64; x64) AppleWebKit/537.36 (KHTML, like Gecko) Chrome/81.0.4044.138 Safari/537.36","0.52","","null","","Ouch, you were stung! You lost <b>-1 </b>point.","","79","null","-1","51","",""
"","html-button-response","162","508712","0.0-3.0-0.79","partial","Female","60","United States of America","","C567071","BA","freqGain","Mozilla/5.0 (Windows NT 10.0; Win64; x64) AppleWebKit/537.36 (KHTML, like Gecko) Chrome/81.0.4044.138 Safari/537.36","0.52","","638","","<img src = 'img/A1-B0-L1-W1.jpg' width = '600'>","0","80","","","","",""
"","html-keyboard-response","163","510714","0.0-3.0-1.79","partial","Female","60","United States of America","","C567071","BA","freqGain","Mozilla/5.0 (Windows NT 10.0; Win64; x64) AppleWebKit/537.36 (KHTML, like Gecko) Chrome/81.0.4044.138 Safari/537.36","0.52","","null","","Ouch, you were stung! You lost <b>-1 </b>point.","","80","null","-1","50","",""
"","html-button-response","164","512169","0.0-3.0-0.80","partial","Female","60","United States of America","","C567071","BA","freqGain","Mozilla/5.0 (Windows NT 10.0; Win64; x64) AppleWebKit/537.36 (KHTML, like Gecko) Chrome/81.0.4044.138 Safari/537.36","0.52","","1453","","<img src = 'img/A0-B1-L1-W0.jpg' width = '600'>","1","81","","","","",""
"","html-keyboard-response","165","514170","0.0-3.0-1.80","partial","Female","60","United States of America","","C567071","BA","freqGain","Mozilla/5.0 (Windows NT 10.0; Win64; x64) AppleWebKit/537.36 (KHTML, like Gecko) Chrome/81.0.4044.138 Safari/537.36","0.52","","null","","You avoided this hive. You earned <b>0 </b>points.","","81","null","0","50","",""
"","html-button-response","166","514824","0.0-3.0-0.81","partial","Female","60","United States of America","","C567071","BA","freqGain","Mozilla/5.0 (Windows NT 10.0; Win64; x64) AppleWebKit/537.36 (KHTML, like Gecko) Chrome/81.0.4044.138 Safari/537.36","0.52","","654","","<img src = 'img/A1-B0-L0-W0.jpg' width = '600'>","1","82","","","","",""
"","html-keyboard-response","167","516827","0.0-3.0-1.81","partial","Female","60","United States of America","","C567071","BA","freqGain","Mozilla/5.0 (Windows NT 10.0; Win64; x64) AppleWebKit/537.36 (KHTML, like Gecko) Chrome/81.0.4044.138 Safari/537.36","0.52","","null","","You avoided this hive. You earned <b>0 </b>points.","","82","null","0","50","",""
"","html-button-response","168","517536","0.0-3.0-0.82","partial","Female","60","United States of America","","C567071","BA","freqGain","Mozilla/5.0 (Windows NT 10.0; Win64; x64) AppleWebKit/537.36 (KHTML, like Gecko) Chrome/81.0.4044.138 Safari/537.36","0.52","","708","","<img src = 'img/A1-B1-L0-W1.jpg' width = '600'>","1","83","","","","",""
"","html-keyboard-response","169","519539","0.0-3.0-1.82","partial","Female","60","United States of America","","C567071","BA","freqGain","Mozilla/5.0 (Windows NT 10.0; Win64; x64) AppleWebKit/537.36 (KHTML, like Gecko) Chrome/81.0.4044.138 Safari/537.36","0.52","","null","","You avoided this hive. You earned <b>0 </b>points.","","83","null","0","50","",""
"","html-button-response","170","520136","0.0-3.0-0.83","partial","Female","60","United States of America","","C567071","BA","freqGain","Mozilla/5.0 (Windows NT 10.0; Win64; x64) AppleWebKit/537.36 (KHTML, like Gecko) Chrome/81.0.4044.138 Safari/537.36","0.52","","597","","<img src = 'img/A1-B1-L1-W0.jpg' width = '600'>","1","84","","","","",""
"","html-keyboard-response","171","522138","0.0-3.0-1.83","partial","Female","60","United States of America","","C567071","BA","freqGain","Mozilla/5.0 (Windows NT 10.0; Win64; x64) AppleWebKit/537.36 (KHTML, like Gecko) Chrome/81.0.4044.138 Safari/537.36","0.52","","null","","You avoided this hive. You earned <b>0 </b>points.","","84","null","0","50","",""
"","html-button-response","172","522801","0.0-3.0-0.84","partial","Female","60","United States of America","","C567071","BA","freqGain","Mozilla/5.0 (Windows NT 10.0; Win64; x64) AppleWebKit/537.36 (KHTML, like Gecko) Chrome/81.0.4044.138 Safari/537.36","0.52","","662","","<img src = 'img/A0-B1-L0-W1.jpg' width = '600'>","1","85","","","","",""
"","html-keyboard-response","173","524802","0.0-3.0-1.84","partial","Female","60","United States of America","","C567071","BA","freqGain","Mozilla/5.0 (Windows NT 10.0; Win64; x64) AppleWebKit/537.36 (KHTML, like Gecko) Chrome/81.0.4044.138 Safari/537.36","0.52","","null","","You avoided this hive. You earned <b>0 </b>points.","","85","null","0","50","",""
"","html-button-response","174","525336","0.0-3.0-0.85","partial","Female","60","United States of America","","C567071","BA","freqGain","Mozilla/5.0 (Windows NT 10.0; Win64; x64) AppleWebKit/537.36 (KHTML, like Gecko) Chrome/81.0.4044.138 Safari/537.36","0.52","","534","","<img src = 'img/A1-B0-L0-W1.jpg' width = '600'>","1","86","","","","",""
"","html-keyboard-response","175","527338","0.0-3.0-1.85","partial","Female","60","United States of America","","C567071","BA","freqGain","Mozilla/5.0 (Windows NT 10.0; Win64; x64) AppleWebKit/537.36 (KHTML, like Gecko) Chrome/81.0.4044.138 Safari/537.36","0.52","","null","","You avoided this hive. You earned <b>0 </b>points.","","86","null","0","50","",""
"","html-button-response","176","527849","0.0-3.0-0.86","partial","Female","60","United States of America","","C567071","BA","freqGain","Mozilla/5.0 (Windows NT 10.0; Win64; x64) AppleWebKit/537.36 (KHTML, like Gecko) Chrome/81.0.4044.138 Safari/537.36","0.52","","510","","<img src = 'img/A0-B1-L0-W0.jpg' width = '600'>","1","87","","","","",""
"","html-keyboard-response","177","529849","0.0-3.0-1.86","partial","Female","60","United States of America","","C567071","BA","freqGain","Mozilla/5.0 (Windows NT 10.0; Win64; x64) AppleWebKit/537.36 (KHTML, like Gecko) Chrome/81.0.4044.138 Safari/537.36","0.52","","null","","You avoided this hive. You earned <b>0 </b>points.","","87","null","0","50","",""
"","html-button-response","178","530448","0.0-3.0-0.87","partial","Female","60","United States of America","","C567071","BA","freqGain","Mozilla/5.0 (Windows NT 10.0; Win64; x64) AppleWebKit/537.36 (KHTML, like Gecko) Chrome/81.0.4044.138 Safari/537.36","0.52","","598","","<img src = 'img/A0-B0-L1-W0.jpg' width = '600'>","1","88","","","","",""
"","html-keyboard-response","179","532449","0.0-3.0-1.87","partial","Female","60","United States of America","","C567071","BA","freqGain","Mozilla/5.0 (Windows NT 10.0; Win64; x64) AppleWebKit/537.36 (KHTML, like Gecko) Chrome/81.0.4044.138 Safari/537.36","0.52","","null","","You avoided this hive. You earned <b>0 </b>points.","","88","null","0","50","",""
"","html-button-response","180","532969","0.0-3.0-0.88","partial","Female","60","United States of America","","C567071","BA","freqGain","Mozilla/5.0 (Windows NT 10.0; Win64; x64) AppleWebKit/537.36 (KHTML, like Gecko) Chrome/81.0.4044.138 Safari/537.36","0.52","","519","","<img src = 'img/A1-B1-L1-W1.jpg' width = '600'>","1","89","","","","",""
"","html-keyboard-response","181","534971","0.0-3.0-1.88","partial","Female","60","United States of America","","C567071","BA","freqGain","Mozilla/5.0 (Windows NT 10.0; Win64; x64) AppleWebKit/537.36 (KHTML, like Gecko) Chrome/81.0.4044.138 Safari/537.36","0.52","","null","","You avoided this hive. You earned <b>0 </b>points.","","89","null","0","50","",""
"","html-button-response","182","535440","0.0-3.0-0.89","partial","Female","60","United States of America","","C567071","BA","freqGain","Mozilla/5.0 (Windows NT 10.0; Win64; x64) AppleWebKit/537.36 (KHTML, like Gecko) Chrome/81.0.4044.138 Safari/537.36","0.52","","469","","<img src = 'img/A1-B1-L0-W0.jpg' width = '600'>","1","90","","","","",""
"","html-keyboard-response","183","537442","0.0-3.0-1.89","partial","Female","60","United States of America","","C567071","BA","freqGain","Mozilla/5.0 (Windows NT 10.0; Win64; x64) AppleWebKit/537.36 (KHTML, like Gecko) Chrome/81.0.4044.138 Safari/537.36","0.52","","null","","You avoided this hive. You earned <b>0 </b>points.","","90","null","0","50","",""
"","html-button-response","184","538081","0.0-3.0-0.90","partial","Female","60","United States of America","","C567071","BA","freqGain","Mozilla/5.0 (Windows NT 10.0; Win64; x64) AppleWebKit/537.36 (KHTML, like Gecko) Chrome/81.0.4044.138 Safari/537.36","0.52","","637","","<img src = 'img/A0-B0-L0-W1.jpg' width = '600'>","1","91","","","","",""
"","html-keyboard-response","185","540083","0.0-3.0-1.90","partial","Female","60","United States of America","","C567071","BA","freqGain","Mozilla/5.0 (Windows NT 10.0; Win64; x64) AppleWebKit/537.36 (KHTML, like Gecko) Chrome/81.0.4044.138 Safari/537.36","0.52","","null","","You avoided this hive. You earned <b>0 </b>points.","","91","null","0","50","",""
"","html-button-response","186","540617","0.0-3.0-0.91","partial","Female","60","United States of America","","C567071","BA","freqGain","Mozilla/5.0 (Windows NT 10.0; Win64; x64) AppleWebKit/537.36 (KHTML, like Gecko) Chrome/81.0.4044.138 Safari/537.36","0.52","","532","","<img src = 'img/A1-B0-L1-W0.jpg' width = '600'>","1","92","","","","",""
"","html-keyboard-response","187","542618","0.0-3.0-1.91","partial","Female","60","United States of America","","C567071","BA","freqGain","Mozilla/5.0 (Windows NT 10.0; Win64; x64) AppleWebKit/537.36 (KHTML, like Gecko) Chrome/81.0.4044.138 Safari/537.36","0.52","","null","","You avoided this hive. You earned <b>0 </b>points.","","92","null","0","50","",""
"","html-button-response","188","543273","0.0-3.0-0.92","partial","Female","60","United States of America","","C567071","BA","freqGain","Mozilla/5.0 (Windows NT 10.0; Win64; x64) AppleWebKit/537.36 (KHTML, like Gecko) Chrome/81.0.4044.138 Safari/537.36","0.52","","653","","<img src = 'img/A1-B0-L1-W1.jpg' width = '600'>","1","93","","","","",""
"","html-keyboard-response","189","545274","0.0-3.0-1.92","partial","Female","60","United States of America","","C567071","BA","freqGain","Mozilla/5.0 (Windows NT 10.0; Win64; x64) AppleWebKit/537.36 (KHTML, like Gecko) Chrome/81.0.4044.138 Safari/537.36","0.52","","null","","You avoided this hive. You earned <b>0 </b>points.","","93","null","0","50","",""
"","html-button-response","190","545840","0.0-3.0-0.93","partial","Female","60","United States of America","","C567071","BA","freqGain","Mozilla/5.0 (Windows NT 10.0; Win64; x64) AppleWebKit/537.36 (KHTML, like Gecko) Chrome/81.0.4044.138 Safari/537.36","0.52","","566","","<img src = 'img/A0-B0-L1-W1.jpg' width = '600'>","1","94","","","","",""
"","html-keyboard-response","191","547841","0.0-3.0-1.93","partial","Female","60","United States of America","","C567071","BA","freqGain","Mozilla/5.0 (Windows NT 10.0; Win64; x64) AppleWebKit/537.36 (KHTML, like Gecko) Chrome/81.0.4044.138 Safari/537.36","0.52","","null","","You avoided this hive. You earned <b>0 </b>points.","","94","null","0","50","",""
"","html-button-response","192","548441","0.0-3.0-0.94","partial","Female","60","United States of America","","C567071","BA","freqGain","Mozilla/5.0 (Windows NT 10.0; Win64; x64) AppleWebKit/537.36 (KHTML, like Gecko) Chrome/81.0.4044.138 Safari/537.36","0.52","","598","","<img src = 'img/A0-B0-L0-W0.jpg' width = '600'>","0","95","","","","",""
"","html-keyboard-response","193","550443","0.0-3.0-1.94","partial","Female","60","United States of America","","C567071","BA","freqGain","Mozilla/5.0 (Windows NT 10.0; Win64; x64) AppleWebKit/537.36 (KHTML, like Gecko) Chrome/81.0.4044.138 Safari/537.36","0.52","","null","","Ouch, you were stung! You lost <b>-1 </b>point.","","95","null","-1","49","",""
"","html-button-response","194","551497","0.0-3.0-0.95","partial","Female","60","United States of America","","C567071","BA","freqGain","Mozilla/5.0 (Windows NT 10.0; Win64; x64) AppleWebKit/537.36 (KHTML, like Gecko) Chrome/81.0.4044.138 Safari/537.36","0.52","","1053","","<img src = 'img/A0-B1-L1-W1.jpg' width = '600'>","0","96","","","","",""
"","html-keyboard-response","195","553499","0.0-3.0-1.95","partial","Female","60","United States of America","","C567071","BA","freqGain","Mozilla/5.0 (Windows NT 10.0; Win64; x64) AppleWebKit/537.36 (KHTML, like Gecko) Chrome/81.0.4044.138 Safari/537.36","0.52","","null","","Ouch, you were stung! You lost <b>-1 </b>point.","","96","null","-1","48","",""
"","html-button-response","196","554201","0.0-3.0-0.96","partial","Female","60","United States of America","","C567071","BA","freqGain","Mozilla/5.0 (Windows NT 10.0; Win64; x64) AppleWebKit/537.36 (KHTML, like Gecko) Chrome/81.0.4044.138 Safari/537.36","0.52","","702","","<img src = 'img/A0-B1-L0-W1.jpg' width = '600'>","0","97","","","","",""
"","html-keyboard-response","197","556203","0.0-3.0-1.96","partial","Female","60","United States of America","","C567071","BA","freqGain","Mozilla/5.0 (Windows NT 10.0; Win64; x64) AppleWebKit/537.36 (KHTML, like Gecko) Chrome/81.0.4044.138 Safari/537.36","0.52","","null","","Ouch, you were stung! You lost <b>-1 </b>point.","","97","null","-1","47","",""
"","html-button-response","198","557177","0.0-3.0-0.97","partial","Female","60","United States of America","","C567071","BA","freqGain","Mozilla/5.0 (Windows NT 10.0; Win64; x64) AppleWebKit/537.36 (KHTML, like Gecko) Chrome/81.0.4044.138 Safari/537.36","0.52","","974","","<img src = 'img/A1-B1-L1-W0.jpg' width = '600'>","0","98","","","","",""
"","html-keyboard-response","199","559178","0.0-3.0-1.97","partial","Female","60","United States of America","","C567071","BA","freqGain","Mozilla/5.0 (Windows NT 10.0; Win64; x64) AppleWebKit/537.36 (KHTML, like Gecko) Chrome/81.0.4044.138 Safari/537.36","0.52","","null","","You successfully harvested honey! You earned <b>3 </b>points.","","98","null","3","50","",""
"","html-button-response","200","559746","0.0-3.0-0.98","partial","Female","60","United States of America","","C567071","BA","freqGain","Mozilla/5.0 (Windows NT 10.0; Win64; x64) AppleWebKit/537.36 (KHTML, like Gecko) Chrome/81.0.4044.138 Safari/537.36","0.52","","566","","<img src = 'img/A0-B1-L1-W1.jpg' width = '600'>","0","99","","","","",""
"","html-keyboard-response","201","561748","0.0-3.0-1.98","partial","Female","60","United States of America","","C567071","BA","freqGain","Mozilla/5.0 (Windows NT 10.0; Win64; x64) AppleWebKit/537.36 (KHTML, like Gecko) Chrome/81.0.4044.138 Safari/537.36","0.52","","null","","Ouch, you were stung! You lost <b>-1 </b>point.","","99","null","-1","49","",""
"","html-button-response","202","563225","0.0-3.0-0.99","partial","Female","60","United States of America","","C567071","BA","freqGain","Mozilla/5.0 (Windows NT 10.0; Win64; x64) AppleWebKit/537.36 (KHTML, like Gecko) Chrome/81.0.4044.138 Safari/537.36","0.52","","1476","","<img src = 'img/A1-B0-L0-W0.jpg' width = '600'>","1","100","","","","",""
"","html-keyboard-response","203","565226","0.0-3.0-1.99","partial","Female","60","United States of America","","C567071","BA","freqGain","Mozilla/5.0 (Windows NT 10.0; Win64; x64) AppleWebKit/537.36 (KHTML, like Gecko) Chrome/81.0.4044.138 Safari/537.36","0.52","","null","","You avoided this hive. You earned <b>0 </b>points.","","100","null","0","49","",""
"","html-button-response","204","566770","0.0-3.0-0.100","partial","Female","60","United States of America","","C567071","BA","freqGain","Mozilla/5.0 (Windows NT 10.0; Win64; x64) AppleWebKit/537.36 (KHTML, like Gecko) Chrome/81.0.4044.138 Safari/537.36","0.52","","1542","","<img src = 'img/A0-B0-L1-W1.jpg' width = '600'>","0","101","","","","",""
"","html-keyboard-response","205","568771","0.0-3.0-1.100","partial","Female","60","United States of America","","C567071","BA","freqGain","Mozilla/5.0 (Windows NT 10.0; Win64; x64) AppleWebKit/537.36 (KHTML, like Gecko) Chrome/81.0.4044.138 Safari/537.36","0.52","","null","","Ouch, you were stung! You lost <b>-1 </b>point.","","101","null","-1","48","",""
"","html-button-response","206","570297","0.0-3.0-0.101","partial","Female","60","United States of America","","C567071","BA","freqGain","Mozilla/5.0 (Windows NT 10.0; Win64; x64) AppleWebKit/537.36 (KHTML, like Gecko) Chrome/81.0.4044.138 Safari/537.36","0.52","","1525","","<img src = 'img/A0-B1-L1-W0.jpg' width = '600'>","1","102","","","","",""
"","html-keyboard-response","207","572299","0.0-3.0-1.101","partial","Female","60","United States of America","","C567071","BA","freqGain","Mozilla/5.0 (Windows NT 10.0; Win64; x64) AppleWebKit/537.36 (KHTML, like Gecko) Chrome/81.0.4044.138 Safari/537.36","0.52","","null","","You avoided this hive. You earned <b>0 </b>points.","","102","null","0","48","",""
"","html-button-response","208","574241","0.0-3.0-0.102","partial","Female","60","United States of America","","C567071","BA","freqGain","Mozilla/5.0 (Windows NT 10.0; Win64; x64) AppleWebKit/537.36 (KHTML, like Gecko) Chrome/81.0.4044.138 Safari/537.36","0.52","","1940","","<img src = 'img/A1-B1-L1-W1.jpg' width = '600'>","1","103","","","","",""
"","html-keyboard-response","209","576242","0.0-3.0-1.102","partial","Female","60","United States of America","","C567071","BA","freqGain","Mozilla/5.0 (Windows NT 10.0; Win64; x64) AppleWebKit/537.36 (KHTML, like Gecko) Chrome/81.0.4044.138 Safari/537.36","0.52","","null","","You avoided this hive. You earned <b>0 </b>points.","","103","null","0","48","",""
"","html-button-response","210","577761","0.0-3.0-0.103","partial","Female","60","United States of America","","C567071","BA","freqGain","Mozilla/5.0 (Windows NT 10.0; Win64; x64) AppleWebKit/537.36 (KHTML, like Gecko) Chrome/81.0.4044.138 Safari/537.36","0.52","","1519","","<img src = 'img/A0-B1-L0-W0.jpg' width = '600'>","1","104","","","","",""
"","html-keyboard-response","211","579763","0.0-3.0-1.103","partial","Female","60","United States of America","","C567071","BA","freqGain","Mozilla/5.0 (Windows NT 10.0; Win64; x64) AppleWebKit/537.36 (KHTML, like Gecko) Chrome/81.0.4044.138 Safari/537.36","0.52","","null","","You avoided this hive. You earned <b>0 </b>points.","","104","null","0","48","",""
"","html-button-response","212","580937","0.0-3.0-0.104","partial","Female","60","United States of America","","C567071","BA","freqGain","Mozilla/5.0 (Windows NT 10.0; Win64; x64) AppleWebKit/537.36 (KHTML, like Gecko) Chrome/81.0.4044.138 Safari/537.36","0.52","","1173","","<img src = 'img/A1-B1-L0-W1.jpg' width = '600'>","1","105","","","","",""
"","html-keyboard-response","213","582940","0.0-3.0-1.104","partial","Female","60","United States of America","","C567071","BA","freqGain","Mozilla/5.0 (Windows NT 10.0; Win64; x64) AppleWebKit/537.36 (KHTML, like Gecko) Chrome/81.0.4044.138 Safari/537.36","0.52","","null","","You avoided this hive. You earned <b>0 </b>points.","","105","null","0","48","",""
"","html-button-response","214","583777","0.0-3.0-0.105","partial","Female","60","United States of America","","C567071","BA","freqGain","Mozilla/5.0 (Windows NT 10.0; Win64; x64) AppleWebKit/537.36 (KHTML, like Gecko) Chrome/81.0.4044.138 Safari/537.36","0.52","","836","","<img src = 'img/A0-B0-L1-W0.jpg' width = '600'>","1","106","","","","",""
"","html-keyboard-response","215","585778","0.0-3.0-1.105","partial","Female","60","United States of America","","C567071","BA","freqGain","Mozilla/5.0 (Windows NT 10.0; Win64; x64) AppleWebKit/537.36 (KHTML, like Gecko) Chrome/81.0.4044.138 Safari/537.36","0.52","","null","","You avoided this hive. You earned <b>0 </b>points.","","106","null","0","48","",""
"","html-button-response","216","586425","0.0-3.0-0.106","partial","Female","60","United States of America","","C567071","BA","freqGain","Mozilla/5.0 (Windows NT 10.0; Win64; x64) AppleWebKit/537.36 (KHTML, like Gecko) Chrome/81.0.4044.138 Safari/537.36","0.52","","646","","<img src = 'img/A1-B0-L1-W1.jpg' width = '600'>","1","107","","","","",""
"","html-keyboard-response","217","588428","0.0-3.0-1.106","partial","Female","60","United States of America","","C567071","BA","freqGain","Mozilla/5.0 (Windows NT 10.0; Win64; x64) AppleWebKit/537.36 (KHTML, like Gecko) Chrome/81.0.4044.138 Safari/537.36","0.52","","null","","You avoided this hive. You earned <b>0 </b>points.","","107","null","0","48","",""
"","html-button-response","218","590217","0.0-3.0-0.107","partial","Female","60","United States of America","","C567071","BA","freqGain","Mozilla/5.0 (Windows NT 10.0; Win64; x64) AppleWebKit/537.36 (KHTML, like Gecko) Chrome/81.0.4044.138 Safari/537.36","0.52","","1788","","<img src = 'img/A0-B0-L0-W0.jpg' width = '600'>","1","108","","","","",""
"","html-keyboard-response","219","592218","0.0-3.0-1.107","partial","Female","60","United States of America","","C567071","BA","freqGain","Mozilla/5.0 (Windows NT 10.0; Win64; x64) AppleWebKit/537.36 (KHTML, like Gecko) Chrome/81.0.4044.138 Safari/537.36","0.52","","null","","You avoided this hive. You earned <b>0 </b>points.","","108","null","0","48","",""
"","html-button-response","220","592953","0.0-3.0-0.108","partial","Female","60","United States of America","","C567071","BA","freqGain","Mozilla/5.0 (Windows NT 10.0; Win64; x64) AppleWebKit/537.36 (KHTML, like Gecko) Chrome/81.0.4044.138 Safari/537.36","0.52","","734","","<img src = 'img/A1-B0-L0-W1.jpg' width = '600'>","1","109","","","","",""
"","html-keyboard-response","221","594954","0.0-3.0-1.108","partial","Female","60","United States of America","","C567071","BA","freqGain","Mozilla/5.0 (Windows NT 10.0; Win64; x64) AppleWebKit/537.36 (KHTML, like Gecko) Chrome/81.0.4044.138 Safari/537.36","0.52","","null","","You avoided this hive. You earned <b>0 </b>points.","","109","null","0","48","",""
"","html-button-response","222","597113","0.0-3.0-0.109","partial","Female","60","United States of America","","C567071","BA","freqGain","Mozilla/5.0 (Windows NT 10.0; Win64; x64) AppleWebKit/537.36 (KHTML, like Gecko) Chrome/81.0.4044.138 Safari/537.36","0.52","","2158","","<img src = 'img/A1-B0-L1-W0.jpg' width = '600'>","1","110","","","","",""
"","html-keyboard-response","223","599115","0.0-3.0-1.109","partial","Female","60","United States of America","","C567071","BA","freqGain","Mozilla/5.0 (Windows NT 10.0; Win64; x64) AppleWebKit/537.36 (KHTML, like Gecko) Chrome/81.0.4044.138 Safari/537.36","0.52","","null","","You avoided this hive. You earned <b>0 </b>points.","","110","null","0","48","",""
"","html-button-response","224","600890","0.0-3.0-0.110","partial","Female","60","United States of America","","C567071","BA","freqGain","Mozilla/5.0 (Windows NT 10.0; Win64; x64) AppleWebKit/537.36 (KHTML, like Gecko) Chrome/81.0.4044.138 Safari/537.36","0.52","","1773","","<img src = 'img/A0-B0-L0-W1.jpg' width = '600'>","0","111","","","","",""
"","html-keyboard-response","225","602892","0.0-3.0-1.110","partial","Female","60","United States of America","","C567071","BA","freqGain","Mozilla/5.0 (Windows NT 10.0; Win64; x64) AppleWebKit/537.36 (KHTML, like Gecko) Chrome/81.0.4044.138 Safari/537.36","0.52","","null","","Ouch, you were stung! You lost <b>-1 </b>point.","","111","null","-1","47","",""
"","html-button-response","226","603609","0.0-3.0-0.111","partial","Female","60","United States of America","","C567071","BA","freqGain","Mozilla/5.0 (Windows NT 10.0; Win64; x64) AppleWebKit/537.36 (KHTML, like Gecko) Chrome/81.0.4044.138 Safari/537.36","0.52","","716","","<img src = 'img/A1-B1-L0-W0.jpg' width = '600'>","0","112","","","","",""
"","html-keyboard-response","227","605611","0.0-3.0-1.111","partial","Female","60","United States of America","","C567071","BA","freqGain","Mozilla/5.0 (Windows NT 10.0; Win64; x64) AppleWebKit/537.36 (KHTML, like Gecko) Chrome/81.0.4044.138 Safari/537.36","0.52","","null","","You successfully harvested honey! You earned <b>3 </b>points.","","112","null","3","50","",""
"","html-button-response","228","606169","0.0-3.0-0.112","partial","Female","60","United States of America","","C567071","BA","freqGain","Mozilla/5.0 (Windows NT 10.0; Win64; x64) AppleWebKit/537.36 (KHTML, like Gecko) Chrome/81.0.4044.138 Safari/537.36","0.52","","558","","<img src = 'img/A0-B0-L0-W0.jpg' width = '600'>","0","113","","","","",""
"","html-keyboard-response","229","608170","0.0-3.0-1.112","partial","Female","60","United States of America","","C567071","BA","freqGain","Mozilla/5.0 (Windows NT 10.0; Win64; x64) AppleWebKit/537.36 (KHTML, like Gecko) Chrome/81.0.4044.138 Safari/537.36","0.52","","null","","Ouch, you were stung! You lost <b>-1 </b>point.","","113","null","-1","49","",""
"","html-button-response","230","608721","0.0-3.0-0.113","partial","Female","60","United States of America","","C567071","BA","freqGain","Mozilla/5.0 (Windows NT 10.0; Win64; x64) AppleWebKit/537.36 (KHTML, like Gecko) Chrome/81.0.4044.138 Safari/537.36","0.52","","550","","<img src = 'img/A1-B1-L0-W1.jpg' width = '600'>","0","114","","","","",""
"","html-keyboard-response","231","610722","0.0-3.0-1.113","partial","Female","60","United States of America","","C567071","BA","freqGain","Mozilla/5.0 (Windows NT 10.0; Win64; x64) AppleWebKit/537.36 (KHTML, like Gecko) Chrome/81.0.4044.138 Safari/537.36","0.52","","null","","You successfully harvested honey! You earned <b>3 </b>points.","","114","null","3","52","",""
"","html-button-response","232","611426","0.0-3.0-0.114","partial","Female","60","United States of America","","C567071","BA","freqGain","Mozilla/5.0 (Windows NT 10.0; Win64; x64) AppleWebKit/537.36 (KHTML, like Gecko) Chrome/81.0.4044.138 Safari/537.36","0.52","","702","","<img src = 'img/A0-B1-L0-W1.jpg' width = '600'>","0","115","","","","",""
"","html-keyboard-response","233","613427","0.0-3.0-1.114","partial","Female","60","United States of America","","C567071","BA","freqGain","Mozilla/5.0 (Windows NT 10.0; Win64; x64) AppleWebKit/537.36 (KHTML, like Gecko) Chrome/81.0.4044.138 Safari/537.36","0.52","","null","","Ouch, you were stung! You lost <b>-1 </b>point.","","115","null","-1","51","",""
"","html-button-response","234","614017","0.0-3.0-0.115","partial","Female","60","United States of America","","C567071","BA","freqGain","Mozilla/5.0 (Windows NT 10.0; Win64; x64) AppleWebKit/537.36 (KHTML, like Gecko) Chrome/81.0.4044.138 Safari/537.36","0.52","","589","","<img src = 'img/A0-B1-L1-W0.jpg' width = '600'>","0","116","","","","",""
"","html-keyboard-response","235","616019","0.0-3.0-1.115","partial","Female","60","United States of America","","C567071","BA","freqGain","Mozilla/5.0 (Windows NT 10.0; Win64; x64) AppleWebKit/537.36 (KHTML, like Gecko) Chrome/81.0.4044.138 Safari/537.36","0.52","","null","","Ouch, you were stung! You lost <b>-1 </b>point.","","116","null","-1","50","",""
"","html-button-response","236","616801","0.0-3.0-0.116","partial","Female","60","United States of America","","C567071","BA","freqGain","Mozilla/5.0 (Windows NT 10.0; Win64; x64) AppleWebKit/537.36 (KHTML, like Gecko) Chrome/81.0.4044.138 Safari/537.36","0.52","","781","","<img src = 'img/A1-B1-L1-W1.jpg' width = '600'>","0","117","","","","",""
"","html-keyboard-response","237","618802","0.0-3.0-1.116","partial","Female","60","United States of America","","C567071","BA","freqGain","Mozilla/5.0 (Windows NT 10.0; Win64; x64) AppleWebKit/537.36 (KHTML, like Gecko) Chrome/81.0.4044.138 Safari/537.36","0.52","","null","","You successfully harvested honey! You earned <b>3 </b>points.","","117","null","3","53","",""
"","html-button-response","238","620697","0.0-3.0-0.117","partial","Female","60","United States of America","","C567071","BA","freqGain","Mozilla/5.0 (Windows NT 10.0; Win64; x64) AppleWebKit/537.36 (KHTML, like Gecko) Chrome/81.0.4044.138 Safari/537.36","0.52","","1894","","<img src = 'img/A1-B0-L0-W0.jpg' width = '600'>","1","118","","","","",""
"","html-keyboard-response","239","622699","0.0-3.0-1.117","partial","Female","60","United States of America","","C567071","BA","freqGain","Mozilla/5.0 (Windows NT 10.0; Win64; x64) AppleWebKit/537.36 (KHTML, like Gecko) Chrome/81.0.4044.138 Safari/537.36","0.52","","null","","You avoided this hive. You earned <b>0 </b>points.","","118","null","0","53","",""
"","html-button-response","240","624113","0.0-3.0-0.118","partial","Female","60","United States of America","","C567071","BA","freqGain","Mozilla/5.0 (Windows NT 10.0; Win64; x64) AppleWebKit/537.36 (KHTML, like Gecko) Chrome/81.0.4044.138 Safari/537.36","0.52","","1414","","<img src = 'img/A0-B0-L1-W1.jpg' width = '600'>","0","119","","","","",""
"","html-keyboard-response","241","626114","0.0-3.0-1.118","partial","Female","60","United States of America","","C567071","BA","freqGain","Mozilla/5.0 (Windows NT 10.0; Win64; x64) AppleWebKit/537.36 (KHTML, like Gecko) Chrome/81.0.4044.138 Safari/537.36","0.52","","null","","Ouch, you were stung! You lost <b>-1 </b>point.","","119","null","-1","52","",""
"","html-button-response","242","626889","0.0-3.0-0.119","partial","Female","60","United States of America","","C567071","BA","freqGain","Mozilla/5.0 (Windows NT 10.0; Win64; x64) AppleWebKit/537.36 (KHTML, like Gecko) Chrome/81.0.4044.138 Safari/537.36","0.52","","774","","<img src = 'img/A1-B0-L0-W1.jpg' width = '600'>","0","120","","","","",""
"","html-keyboard-response","243","628890","0.0-3.0-1.119","partial","Female","60","United States of America","","C567071","BA","freqGain","Mozilla/5.0 (Windows NT 10.0; Win64; x64) AppleWebKit/537.36 (KHTML, like Gecko) Chrome/81.0.4044.138 Safari/537.36","0.52","","null","","Ouch, you were stung! You lost <b>-1 </b>point.","","120","null","-1","51","",""
"","html-button-response","244","629881","0.0-3.0-0.120","partial","Female","60","United States of America","","C567071","BA","freqGain","Mozilla/5.0 (Windows NT 10.0; Win64; x64) AppleWebKit/537.36 (KHTML, like Gecko) Chrome/81.0.4044.138 Safari/537.36","0.52","","990","","<img src = 'img/A0-B1-L1-W1.jpg' width = '600'>","0","121","","","","",""
"","html-keyboard-response","245","631882","0.0-3.0-1.120","partial","Female","60","United States of America","","C567071","BA","freqGain","Mozilla/5.0 (Windows NT 10.0; Win64; x64) AppleWebKit/537.36 (KHTML, like Gecko) Chrome/81.0.4044.138 Safari/537.36","0.52","","null","","Ouch, you were stung! You lost <b>-1 </b>point.","","121","null","-1","50","",""
"","html-button-response","246","632505","0.0-3.0-0.121","partial","Female","60","United States of America","","C567071","BA","freqGain","Mozilla/5.0 (Windows NT 10.0; Win64; x64) AppleWebKit/537.36 (KHTML, like Gecko) Chrome/81.0.4044.138 Safari/537.36","0.52","","622","","<img src = 'img/A1-B1-L1-W0.jpg' width = '600'>","0","122","","","","",""
"","html-keyboard-response","247","634507","0.0-3.0-1.121","partial","Female","60","United States of America","","C567071","BA","freqGain","Mozilla/5.0 (Windows NT 10.0; Win64; x64) AppleWebKit/537.36 (KHTML, like Gecko) Chrome/81.0.4044.138 Safari/537.36","0.52","","null","","You successfully harvested honey! You earned <b>3 </b>points.","","122","null","3","53","",""
"","html-button-response","248","635097","0.0-3.0-0.122","partial","Female","60","United States of America","","C567071","BA","freqGain","Mozilla/5.0 (Windows NT 10.0; Win64; x64) AppleWebKit/537.36 (KHTML, like Gecko) Chrome/81.0.4044.138 Safari/537.36","0.52","","589","","<img src = 'img/A0-B0-L0-W1.jpg' width = '600'>","0","123","","","","",""
"","html-keyboard-response","249","637099","0.0-3.0-1.122","partial","Female","60","United States of America","","C567071","BA","freqGain","Mozilla/5.0 (Windows NT 10.0; Win64; x64) AppleWebKit/537.36 (KHTML, like Gecko) Chrome/81.0.4044.138 Safari/537.36","0.52","","null","","Ouch, you were stung! You lost <b>-1 </b>point.","","123","null","-1","52","",""
"","html-button-response","250","637674","0.0-3.0-0.123","partial","Female","60","United States of America","","C567071","BA","freqGain","Mozilla/5.0 (Windows NT 10.0; Win64; x64) AppleWebKit/537.36 (KHTML, like Gecko) Chrome/81.0.4044.138 Safari/537.36","0.52","","574","","<img src = 'img/A0-B1-L0-W0.jpg' width = '600'>","0","124","","","","",""
"","html-keyboard-response","251","639675","0.0-3.0-1.123","partial","Female","60","United States of America","","C567071","BA","freqGain","Mozilla/5.0 (Windows NT 10.0; Win64; x64) AppleWebKit/537.36 (KHTML, like Gecko) Chrome/81.0.4044.138 Safari/537.36","0.52","","null","","Ouch, you were stung! You lost <b>-1 </b>point.","","124","null","-1","51","",""
"","html-button-response","252","640425","0.0-3.0-0.124","partial","Female","60","United States of America","","C567071","BA","freqGain","Mozilla/5.0 (Windows NT 10.0; Win64; x64) AppleWebKit/537.36 (KHTML, like Gecko) Chrome/81.0.4044.138 Safari/537.36","0.52","","749","","<img src = 'img/A1-B1-L0-W0.jpg' width = '600'>","0","125","","","","",""
"","html-keyboard-response","253","642426","0.0-3.0-1.124","partial","Female","60","United States of America","","C567071","BA","freqGain","Mozilla/5.0 (Windows NT 10.0; Win64; x64) AppleWebKit/537.36 (KHTML, like Gecko) Chrome/81.0.4044.138 Safari/537.36","0.52","","null","","You successfully harvested honey! You earned <b>3 </b>points.","","125","null","3","54","",""
"","html-button-response","254","643033","0.0-3.0-0.125","partial","Female","60","United States of America","","C567071","BA","freqGain","Mozilla/5.0 (Windows NT 10.0; Win64; x64) AppleWebKit/537.36 (KHTML, like Gecko) Chrome/81.0.4044.138 Safari/537.36","0.52","","606","","<img src = 'img/A0-B0-L1-W0.jpg' width = '600'>","0","126","","","","",""
"","html-keyboard-response","255","645034","0.0-3.0-1.125","partial","Female","60","United States of America","","C567071","BA","freqGain","Mozilla/5.0 (Windows NT 10.0; Win64; x64) AppleWebKit/537.36 (KHTML, like Gecko) Chrome/81.0.4044.138 Safari/537.36","0.52","","null","","Ouch, you were stung! You lost <b>-1 </b>point.","","126","null","-1","53","",""
"","html-button-response","256","645810","0.0-3.0-0.126","partial","Female","60","United States of America","","C567071","BA","freqGain","Mozilla/5.0 (Windows NT 10.0; Win64; x64) AppleWebKit/537.36 (KHTML, like Gecko) Chrome/81.0.4044.138 Safari/537.36","0.52","","774","","<img src = 'img/A1-B0-L1-W1.jpg' width = '600'>","0","127","","","","",""
"","html-keyboard-response","257","647811","0.0-3.0-1.126","partial","Female","60","United States of America","","C567071","BA","freqGain","Mozilla/5.0 (Windows NT 10.0; Win64; x64) AppleWebKit/537.36 (KHTML, like Gecko) Chrome/81.0.4044.138 Safari/537.36","0.52","","null","","Ouch, you were stung! You lost <b>-1 </b>point.","","127","null","-1","52","",""
"","html-button-response","258","648585","0.0-3.0-0.127","partial","Female","60","United States of America","","C567071","BA","freqGain","Mozilla/5.0 (Windows NT 10.0; Win64; x64) AppleWebKit/537.36 (KHTML, like Gecko) Chrome/81.0.4044.138 Safari/537.36","0.52","","773","","<img src = 'img/A1-B0-L1-W0.jpg' width = '600'>","0","128","","","","",""
"","html-keyboard-response","259","650587","0.0-3.0-1.127","partial","Female","60","United States of America","","C567071","BA","freqGain","Mozilla/5.0 (Windows NT 10.0; Win64; x64) AppleWebKit/537.36 (KHTML, like Gecko) Chrome/81.0.4044.138 Safari/537.36","0.52","","null","","Ouch, you were stung! You lost <b>-1 </b>point.","","128","null","-1","51","",""
"","external-html","260","723992","0.0-4.0","partial","Female","60","United States of America","","C567071","BA","freqGain","Mozilla/5.0 (Windows NT 10.0; Win64; x64) AppleWebKit/537.36 (KHTML, like Gecko) Chrome/81.0.4044.138 Safari/537.36","0.52","","72719.92499999772","","","","","","","","./pages/testinstr-fl.html",""
"","html-button-response","261","728209","0.0-5.0-0.0","partial","Female","60","United States of America","","C567071","BA","freqGain","Mozilla/5.0 (Windows NT 10.0; Win64; x64) AppleWebKit/537.36 (KHTML, like Gecko) Chrome/81.0.4044.138 Safari/537.36","0.52","","4215","","<img src = 'img/A0-B0-L0-W1.jpg' width = '600'>","1","","","","","","1"
"","html-keyboard-response","262","729611","0.0-5.0-1.0","partial","Female","60","United States of America","","C567071","BA","freqGain","Mozilla/5.0 (Windows NT 10.0; Win64; x64) AppleWebKit/537.36 (KHTML, like Gecko) Chrome/81.0.4044.138 Safari/537.36","0.52","","null","","","","","null","0","51","","1"
"","html-button-response","263","732961","0.0-5.0-0.1","partial","Female","60","United States of America","","C567071","BA","freqGain","Mozilla/5.0 (Windows NT 10.0; Win64; x64) AppleWebKit/537.36 (KHTML, like Gecko) Chrome/81.0.4044.138 Safari/537.36","0.52","","3349","","<img src = 'img/A1-B1-L1-W0.jpg' width = '600'>","0","","","","","","2"
"","html-keyboard-response","264","734363","0.0-5.0-1.1","partial","Female","60","United States of America","","C567071","BA","freqGain","Mozilla/5.0 (Windows NT 10.0; Win64; x64) AppleWebKit/537.36 (KHTML, like Gecko) Chrome/81.0.4044.138 Safari/537.36","0.52","","null","","","","","null","3","54","","2"
"","html-button-response","265","736537","0.0-5.0-0.2","partial","Female","60","United States of America","","C567071","BA","freqGain","Mozilla/5.0 (Windows NT 10.0; Win64; x64) AppleWebKit/537.36 (KHTML, like Gecko) Chrome/81.0.4044.138 Safari/537.36","0.52","","2172","","<img src = 'img/A1-B0-L1-W1.jpg' width = '600'>","1","","","","","","3"
"","html-keyboard-response","266","737938","0.0-5.0-1.2","partial","Female","60","United States of America","","C567071","BA","freqGain","Mozilla/5.0 (Windows NT 10.0; Win64; x64) AppleWebKit/537.36 (KHTML, like Gecko) Chrome/81.0.4044.138 Safari/537.36","0.52","","null","","","","","null","0","54","","3"
"","html-button-response","267","739513","0.0-5.0-0.3","partial","Female","60","United States of America","","C567071","BA","freqGain","Mozilla/5.0 (Windows NT 10.0; Win64; x64) AppleWebKit/537.36 (KHTML, like Gecko) Chrome/81.0.4044.138 Safari/537.36","0.52","","1574","","<img src = 'img/A0-B0-L1-W1.jpg' width = '600'>","1","","","","","","4"
"","html-keyboard-response","268","740915","0.0-5.0-1.3","partial","Female","60","United States of America","","C567071","BA","freqGain","Mozilla/5.0 (Windows NT 10.0; Win64; x64) AppleWebKit/537.36 (KHTML, like Gecko) Chrome/81.0.4044.138 Safari/537.36","0.52","","null","","","","","null","0","54","","4"
"","html-button-response","269","742376","0.0-5.0-0.4","partial","Female","60","United States of America","","C567071","BA","freqGain","Mozilla/5.0 (Windows NT 10.0; Win64; x64) AppleWebKit/537.36 (KHTML, like Gecko) Chrome/81.0.4044.138 Safari/537.36","0.52","","1460","","<img src = 'img/A1-B0-L0-W1.jpg' width = '600'>","1","","","","","","5"
"","html-keyboard-response","270","743779","0.0-5.0-1.4","partial","Female","60","United States of America","","C567071","BA","freqGain","Mozilla/5.0 (Windows NT 10.0; Win64; x64) AppleWebKit/537.36 (KHTML, like Gecko) Chrome/81.0.4044.138 Safari/537.36","0.52","","null","","","","","null","0","54","","5"
"","html-button-response","271","746089","0.0-5.0-0.5","partial","Female","60","United States of America","","C567071","BA","freqGain","Mozilla/5.0 (Windows NT 10.0; Win64; x64) AppleWebKit/537.36 (KHTML, like Gecko) Chrome/81.0.4044.138 Safari/537.36","0.52","","2309","","<img src = 'img/A1-B1-L1-W1.jpg' width = '600'>","0","","","","","","6"
"","html-keyboard-response","272","747490","0.0-5.0-1.5","partial","Female","60","United States of America","","C567071","BA","freqGain","Mozilla/5.0 (Windows NT 10.0; Win64; x64) AppleWebKit/537.36 (KHTML, like Gecko) Chrome/81.0.4044.138 Safari/537.36","0.52","","null","","","","","null","3","57","","6"
"","html-button-response","273","749009","0.0-5.0-0.6","partial","Female","60","United States of America","","C567071","BA","freqGain","Mozilla/5.0 (Windows NT 10.0; Win64; x64) AppleWebKit/537.36 (KHTML, like Gecko) Chrome/81.0.4044.138 Safari/537.36","0.52","","1517","","<img src = 'img/A0-B1-L0-W0.jpg' width = '600'>","1","","","","","","7"
"","html-keyboard-response","274","750409","0.0-5.0-1.6","partial","Female","60","United States of America","","C567071","BA","freqGain","Mozilla/5.0 (Windows NT 10.0; Win64; x64) AppleWebKit/537.36 (KHTML, like Gecko) Chrome/81.0.4044.138 Safari/537.36","0.52","","null","","","","","null","0","57","","7"
"","html-button-response","275","753208","0.0-5.0-0.7","partial","Female","60","United States of America","","C567071","BA","freqGain","Mozilla/5.0 (Windows NT 10.0; Win64; x64) AppleWebKit/537.36 (KHTML, like Gecko) Chrome/81.0.4044.138 Safari/537.36","0.52","","2798","","<img src = 'img/A0-B0-L1-W0.jpg' width = '600'>","1","","","","","","8"
"","html-keyboard-response","276","754611","0.0-5.0-1.7","partial","Female","60","United States of America","","C567071","BA","freqGain","Mozilla/5.0 (Windows NT 10.0; Win64; x64) AppleWebKit/537.36 (KHTML, like Gecko) Chrome/81.0.4044.138 Safari/537.36","0.52","","null","","","","","null","0","57","","8"
"","html-button-response","277","755697","0.0-5.0-0.8","partial","Female","60","United States of America","","C567071","BA","freqGain","Mozilla/5.0 (Windows NT 10.0; Win64; x64) AppleWebKit/537.36 (KHTML, like Gecko) Chrome/81.0.4044.138 Safari/537.36","0.52","","1086","","<img src = 'img/A1-B1-L0-W0.jpg' width = '600'>","1","","","","","","9"
"","html-keyboard-response","278","757098","0.0-5.0-1.8","partial","Female","60","United States of America","","C567071","BA","freqGain","Mozilla/5.0 (Windows NT 10.0; Win64; x64) AppleWebKit/537.36 (KHTML, like Gecko) Chrome/81.0.4044.138 Safari/537.36","0.52","","null","","","","","null","0","57","","9"
"","html-button-response","279","758697","0.0-5.0-0.9","partial","Female","60","United States of America","","C567071","BA","freqGain","Mozilla/5.0 (Windows NT 10.0; Win64; x64) AppleWebKit/537.36 (KHTML, like Gecko) Chrome/81.0.4044.138 Safari/537.36","0.52","","1598","","<img src = 'img/A0-B1-L0-W1.jpg' width = '600'>","0","","","","","","10"
"","html-keyboard-response","280","760098","0.0-5.0-1.9","partial","Female","60","United States of America","","C567071","BA","freqGain","Mozilla/5.0 (Windows NT 10.0; Win64; x64) AppleWebKit/537.36 (KHTML, like Gecko) Chrome/81.0.4044.138 Safari/537.36","0.52","","null","","","","","null","-1","56","","10"
"","html-button-response","281","761417","0.0-5.0-0.10","partial","Female","60","United States of America","","C567071","BA","freqGain","Mozilla/5.0 (Windows NT 10.0; Win64; x64) AppleWebKit/537.36 (KHTML, like Gecko) Chrome/81.0.4044.138 Safari/537.36","0.52","","1317","","<img src = 'img/A1-B1-L0-W1.jpg' width = '600'>","1","","","","","","11"
