"success","trial_type","trial_index","time_elapsed","internal_node_id","feedback","gender","age","country","email","turkcode","relevantDim","condition","browserinfo","bonus","view_history","rt","responses","stimulus","button_pressed","i","key_press","earnedThis","earnedCumulative","url","k"
"true","fullscreen","0","3023","0.0-0.0","partial","Male","100","United States of America","","C189879","WA","freqGain","Mozilla/5.0 (Windows NT 6.3; Win64; x64; rv:75.0) Gecko/20100101 Firefox/75.0","1.07","","","","","","","","","","",""
"","instructions","1","49219","0.0-1.0-0.0","partial","Male","100","United States of America","","C189879","WA","freqGain","Mozilla/5.0 (Windows NT 6.3; Win64; x64; rv:75.0) Gecko/20100101 Firefox/75.0","1.07","[{""page_index"":0,""viewing_time"":28854},{""page_index"":1,""viewing_time"":6719},{""page_index"":2,""viewing_time"":10620}]","46194","","","","","","","","",""
"","survey-html-form","2","66311","0.0-1.0-1.0","partial","Male","100","United States of America","","C189879","WA","freqGain","Mozilla/5.0 (Windows NT 6.3; Win64; x64; rv:75.0) Gecko/20100101 Firefox/75.0","1.07","","17087","{""legs"":""checked"",""change"":""yes"",""telldangerous"":""feature"",""avoidinfo"":""info""}","","","","","","","",""
"","html-button-response","3","70197","0.0-1.0-2.0-0.0","partial","Male","100","United States of America","","C189879","WA","freqGain","Mozilla/5.0 (Windows NT 6.3; Win64; x64; rv:75.0) Gecko/20100101 Firefox/75.0","1.07","","3883","","Oh no! One of your answers was incorrect. Let's try again.","0","","","","","",""
"","instructions","4","86715","0.0-1.1-0.1","partial","Male","100","United States of America","","C189879","WA","freqGain","Mozilla/5.0 (Windows NT 6.3; Win64; x64; rv:75.0) Gecko/20100101 Firefox/75.0","1.07","[{""page_index"":0,""viewing_time"":2118},{""page_index"":1,""viewing_time"":10015},{""page_index"":2,""viewing_time"":4384}]","16517","","","","","","","","",""
"","survey-html-form","5","103476","0.0-1.1-1.1","partial","Male","100","United States of America","","C189879","WA","freqGain","Mozilla/5.0 (Windows NT 6.3; Win64; x64; rv:75.0) Gecko/20100101 Firefox/75.0","1.07","","16758","{""legs"":""checked"",""change"":""yes"",""telldangerous"":""smoke"",""avoidinfo"":""info""}","","","","","","","",""
"","html-button-response","6","107215","0.0-1.1-2.1-0.1","partial","Male","100","United States of America","","C189879","WA","freqGain","Mozilla/5.0 (Windows NT 6.3; Win64; x64; rv:75.0) Gecko/20100101 Firefox/75.0","1.07","","3736","","Oh no! One of your answers was incorrect. Let's try again.","0","","","","","",""
"","instructions","7","115374","0.0-1.2-0.2","partial","Male","100","United States of America","","C189879","WA","freqGain","Mozilla/5.0 (Windows NT 6.3; Win64; x64; rv:75.0) Gecko/20100101 Firefox/75.0","1.07","[{""page_index"":0,""viewing_time"":1606},{""page_index"":1,""viewing_time"":2952},{""page_index"":2,""viewing_time"":3600}]","8158","","","","","","","","",""
"","survey-html-form","8","130963","0.0-1.2-1.2","partial","Male","100","United States of America","","C189879","WA","freqGain","Mozilla/5.0 (Windows NT 6.3; Win64; x64; rv:75.0) Gecko/20100101 Firefox/75.0","1.07","","15587","{""legs"":""checked"",""change"":""no"",""telldangerous"":""feature"",""avoidinfo"":""info""}","","","","","","","",""
"","html-button-response","9","132813","0.0-1.2-2.2-0.2","partial","Male","100","United States of America","","C189879","WA","freqGain","Mozilla/5.0 (Windows NT 6.3; Win64; x64; rv:75.0) Gecko/20100101 Firefox/75.0","1.07","","1847","","Oh no! One of your answers was incorrect. Let's try again.","0","","","","","",""
"","instructions","10","140488","0.0-1.3-0.3","partial","Male","100","United States of America","","C189879","WA","freqGain","Mozilla/5.0 (Windows NT 6.3; Win64; x64; rv:75.0) Gecko/20100101 Firefox/75.0","1.07","[{""page_index"":0,""viewing_time"":1319},{""page_index"":1,""viewing_time"":2955},{""page_index"":2,""viewing_time"":3400}]","7674","","","","","","","","",""
"","survey-html-form","11","159673","0.0-1.3-1.3","partial","Male","100","United States of America","","C189879","WA","freqGain","Mozilla/5.0 (Windows NT 6.3; Win64; x64; rv:75.0) Gecko/20100101 Firefox/75.0","1.07","","19181","{""legs"":""checked"",""body"":""checked"",""wings"":""checked"",""change"":""yes"",""telldangerous"":""feature"",""avoidinfo"":""infoPlusBonus""}","","","","","","","",""
"","html-button-response","12","161619","0.0-1.3-2.3-0.3","partial","Male","100","United States of America","","C189879","WA","freqGain","Mozilla/5.0 (Windows NT 6.3; Win64; x64; rv:75.0) Gecko/20100101 Firefox/75.0","1.07","","1945","","Oh no! One of your answers was incorrect. Let's try again.","0","","","","","",""
"","instructions","13","270005","0.0-1.4-0.4","partial","Male","100","United States of America","","C189879","WA","freqGain","Mozilla/5.0 (Windows NT 6.3; Win64; x64; rv:75.0) Gecko/20100101 Firefox/75.0","1.07","[{""page_index"":0,""viewing_time"":51036},{""page_index"":1,""viewing_time"":33718},{""page_index"":2,""viewing_time"":23630}]","108385","","","","","","","","",""
"","survey-html-form","14","334883","0.0-1.4-1.4","partial","Male","100","United States of America","","C189879","WA","freqGain","Mozilla/5.0 (Windows NT 6.3; Win64; x64; rv:75.0) Gecko/20100101 Firefox/75.0","1.07","","64875","{""legs"":""checked"",""body"":""checked"",""sting"":""checked"",""wings"":""checked"",""change"":""no"",""telldangerous"":""smoke"",""avoidinfo"":""infoPlusBonus""}","","","","","","","",""
"","html-button-response","15","336921","0.0-1.4-2.4-0.4","partial","Male","100","United States of America","","C189879","WA","freqGain","Mozilla/5.0 (Windows NT 6.3; Win64; x64; rv:75.0) Gecko/20100101 Firefox/75.0","1.07","","2038","","Oh no! One of your answers was incorrect. Let's try again.","0","","","","","",""
"","instructions","16","358965","0.0-1.5-0.5","partial","Male","100","United States of America","","C189879","WA","freqGain","Mozilla/5.0 (Windows NT 6.3; Win64; x64; rv:75.0) Gecko/20100101 Firefox/75.0","1.07","[{""page_index"":0,""viewing_time"":1479},{""page_index"":1,""viewing_time"":16669},{""page_index"":2,""viewing_time"":3894}]","22043","","","","","","","","",""
"","survey-html-form","17","388516","0.0-1.5-1.5","partial","Male","100","United States of America","","C189879","WA","freqGain","Mozilla/5.0 (Windows NT 6.3; Win64; x64; rv:75.0) Gecko/20100101 Firefox/75.0","1.07","","29549","{""legs"":""checked"",""body"":""checked"",""wings"":""checked"",""antennae"":""checked"",""change"":""no"",""telldangerous"":""smoke"",""avoidinfo"":""noInfo""}","","","","","","","",""
"","html-button-response","18","419585","0.0-1.5-2.5-0.5","partial","Male","100","United States of America","","C189879","WA","freqGain","Mozilla/5.0 (Windows NT 6.3; Win64; x64; rv:75.0) Gecko/20100101 Firefox/75.0","1.07","","31067","","Oh no! One of your answers was incorrect. Let's try again.","0","","","","","",""
"","instructions","19","430815","0.0-1.6-0.6","partial","Male","100","United States of America","","C189879","WA","freqGain","Mozilla/5.0 (Windows NT 6.3; Win64; x64; rv:75.0) Gecko/20100101 Firefox/75.0","1.07","[{""page_index"":0,""viewing_time"":1686},{""page_index"":1,""viewing_time"":2644},{""page_index"":2,""viewing_time"":6900}]","11230","","","","","","","","",""
"","survey-html-form","20","482583","0.0-1.6-1.6","partial","Male","100","United States of America","","C189879","WA","freqGain","Mozilla/5.0 (Windows NT 6.3; Win64; x64; rv:75.0) Gecko/20100101 Firefox/75.0","1.07","","51765","{""legs"":""checked"",""body"":""checked"",""wings"":""checked"",""antennae"":""checked"",""change"":""no"",""telldangerous"":""feature"",""avoidinfo"":""info""}","","","","","","","",""
"","html-button-response","21","484253","0.0-1.6-2.6-0.6","partial","Male","100","United States of America","","C189879","WA","freqGain","Mozilla/5.0 (Windows NT 6.3; Win64; x64; rv:75.0) Gecko/20100101 Firefox/75.0","1.07","","1667","","Oh no! One of your answers was incorrect. Let's try again.","0","","","","","",""
"","instructions","22","593961","0.0-1.7-0.7","partial","Male","100","United States of America","","C189879","WA","freqGain","Mozilla/5.0 (Windows NT 6.3; Win64; x64; rv:75.0) Gecko/20100101 Firefox/75.0","1.07","[{""page_index"":0,""viewing_time"":18393},{""page_index"":1,""viewing_time"":55979},{""page_index"":2,""viewing_time"":35334}]","109706","","","","","","","","",""
"","survey-html-form","23","644625","0.0-1.7-1.7","partial","Male","100","United States of America","","C189879","WA","freqGain","Mozilla/5.0 (Windows NT 6.3; Win64; x64; rv:75.0) Gecko/20100101 Firefox/75.0","1.07","","50661","{""legs"":""checked"",""body"":""checked"",""wings"":""checked"",""antennae"":""checked"",""change"":""no"",""telldangerous"":""feature"",""avoidinfo"":""noInfo""}","","","","","","","",""
"","html-button-response","24","649210","0.0-2.0","partial","Male","100","United States of America","","C189879","WA","freqGain","Mozilla/5.0 (Windows NT 6.3; Win64; x64; rv:75.0) Gecko/20100101 Firefox/75.0","1.07","","4584","","<p>Well done! This is now the last page of instructions.</p> <p>You're going to start experiment now.</p>","0","","","","","",""
"","html-button-response","25","655162","0.0-3.0-0.0","partial","Male","100","United States of America","","C189879","WA","freqGain","Mozilla/5.0 (Windows NT 6.3; Win64; x64; rv:75.0) Gecko/20100101 Firefox/75.0","1.07","","5949","","<img src = 'img/A1-B1-L1-W0.jpg' width = '600'>","0","1","","","","",""
"","html-keyboard-response","26","657170","0.0-3.0-1.0","partial","Male","100","United States of America","","C189879","WA","freqGain","Mozilla/5.0 (Windows NT 6.3; Win64; x64; rv:75.0) Gecko/20100101 Firefox/75.0","1.07","","null","","Ouch, you were stung! You lost <b>-1 </b>point.","","1","null","-1","49","",""
"","html-button-response","27","663081","0.0-3.0-0.1","partial","Male","100","United States of America","","C189879","WA","freqGain","Mozilla/5.0 (Windows NT 6.3; Win64; x64; rv:75.0) Gecko/20100101 Firefox/75.0","1.07","","5911","","<img src = 'img/A1-B1-L0-W1.jpg' width = '600'>","0","2","","","","",""
"","html-keyboard-response","28","665090","0.0-3.0-1.1","partial","Male","100","United States of America","","C189879","WA","freqGain","Mozilla/5.0 (Windows NT 6.3; Win64; x64; rv:75.0) Gecko/20100101 Firefox/75.0","1.07","","null","","You successfully harvested honey! You earned <b>3 </b>points.","","2","null","3","52","",""
"","html-button-response","29","668201","0.0-3.0-0.2","partial","Male","100","United States of America","","C189879","WA","freqGain","Mozilla/5.0 (Windows NT 6.3; Win64; x64; rv:75.0) Gecko/20100101 Firefox/75.0","1.07","","3110","","<img src = 'img/A1-B0-L0-W0.jpg' width = '600'>","1","3","","","","",""
"","html-keyboard-response","30","670216","0.0-3.0-1.2","partial","Male","100","United States of America","","C189879","WA","freqGain","Mozilla/5.0 (Windows NT 6.3; Win64; x64; rv:75.0) Gecko/20100101 Firefox/75.0","1.07","","null","","You avoided this hive. You earned <b>0 </b>points.","","3","null","0","52","",""
"","html-button-response","31","672069","0.0-3.0-0.3","partial","Male","100","United States of America","","C189879","WA","freqGain","Mozilla/5.0 (Windows NT 6.3; Win64; x64; rv:75.0) Gecko/20100101 Firefox/75.0","1.07","","1852","","<img src = 'img/A1-B0-L0-W1.jpg' width = '600'>","0","4","","","","",""
"","html-keyboard-response","32","674075","0.0-3.0-1.3","partial","Male","100","United States of America","","C189879","WA","freqGain","Mozilla/5.0 (Windows NT 6.3; Win64; x64; rv:75.0) Gecko/20100101 Firefox/75.0","1.07","","null","","You successfully harvested honey! You earned <b>3 </b>points.","","4","null","3","55","",""
"","html-button-response","33","675377","0.0-3.0-0.4","partial","Male","100","United States of America","","C189879","WA","freqGain","Mozilla/5.0 (Windows NT 6.3; Win64; x64; rv:75.0) Gecko/20100101 Firefox/75.0","1.07","","1302","","<img src = 'img/A1-B0-L1-W0.jpg' width = '600'>","0","5","","","","",""
"","html-keyboard-response","34","677387","0.0-3.0-1.4","partial","Male","100","United States of America","","C189879","WA","freqGain","Mozilla/5.0 (Windows NT 6.3; Win64; x64; rv:75.0) Gecko/20100101 Firefox/75.0","1.07","","null","","Ouch, you were stung! You lost <b>-1 </b>point.","","5","null","-1","54","",""
"","html-button-response","35","678500","0.0-3.0-0.5","partial","Male","100","United States of America","","C189879","WA","freqGain","Mozilla/5.0 (Windows NT 6.3; Win64; x64; rv:75.0) Gecko/20100101 Firefox/75.0","1.07","","1113","","<img src = 'img/A0-B0-L0-W1.jpg' width = '600'>","0","6","","","","",""
"","html-keyboard-response","36","680512","0.0-3.0-1.5","partial","Male","100","United States of America","","C189879","WA","freqGain","Mozilla/5.0 (Windows NT 6.3; Win64; x64; rv:75.0) Gecko/20100101 Firefox/75.0","1.07","","null","","Ouch, you were stung! You lost <b>-1 </b>point.","","6","null","-1","53","",""
"","html-button-response","37","681888","0.0-3.0-0.6","partial","Male","100","United States of America","","C189879","WA","freqGain","Mozilla/5.0 (Windows NT 6.3; Win64; x64; rv:75.0) Gecko/20100101 Firefox/75.0","1.07","","1376","","<img src = 'img/A0-B1-L0-W0.jpg' width = '600'>","0","7","","","","",""
"","html-keyboard-response","38","683902","0.0-3.0-1.6","partial","Male","100","United States of America","","C189879","WA","freqGain","Mozilla/5.0 (Windows NT 6.3; Win64; x64; rv:75.0) Gecko/20100101 Firefox/75.0","1.07","","null","","Ouch, you were stung! You lost <b>-1 </b>point.","","7","null","-1","52","",""
"","html-button-response","39","686640","0.0-3.0-0.7","partial","Male","100","United States of America","","C189879","WA","freqGain","Mozilla/5.0 (Windows NT 6.3; Win64; x64; rv:75.0) Gecko/20100101 Firefox/75.0","1.07","","2737","","<img src = 'img/A0-B0-L1-W0.jpg' width = '600'>","0","8","","","","",""
"","html-keyboard-response","40","688652","0.0-3.0-1.7","partial","Male","100","United States of America","","C189879","WA","freqGain","Mozilla/5.0 (Windows NT 6.3; Win64; x64; rv:75.0) Gecko/20100101 Firefox/75.0","1.07","","null","","Ouch, you were stung! You lost <b>-1 </b>point.","","8","null","-1","51","",""
"","html-button-response","41","690423","0.0-3.0-0.8","partial","Male","100","United States of America","","C189879","WA","freqGain","Mozilla/5.0 (Windows NT 6.3; Win64; x64; rv:75.0) Gecko/20100101 Firefox/75.0","1.07","","1770","","<img src = 'img/A1-B1-L1-W1.jpg' width = '600'>","0","9","","","","",""
"","html-keyboard-response","42","692433","0.0-3.0-1.8","partial","Male","100","United States of America","","C189879","WA","freqGain","Mozilla/5.0 (Windows NT 6.3; Win64; x64; rv:75.0) Gecko/20100101 Firefox/75.0","1.07","","null","","You successfully harvested honey! You earned <b>3 </b>points.","","9","null","3","54","",""
"","html-button-response","43","693807","0.0-3.0-0.9","partial","Male","100","United States of America","","C189879","WA","freqGain","Mozilla/5.0 (Windows NT 6.3; Win64; x64; rv:75.0) Gecko/20100101 Firefox/75.0","1.07","","1373","","<img src = 'img/A0-B1-L0-W1.jpg' width = '600'>","0","10","","","","",""
"","html-keyboard-response","44","695823","0.0-3.0-1.9","partial","Male","100","United States of America","","C189879","WA","freqGain","Mozilla/5.0 (Windows NT 6.3; Win64; x64; rv:75.0) Gecko/20100101 Firefox/75.0","1.07","","null","","Ouch, you were stung! You lost <b>-1 </b>point.","","10","null","-1","53","",""
"","html-button-response","45","698187","0.0-3.0-0.10","partial","Male","100","United States of America","","C189879","WA","freqGain","Mozilla/5.0 (Windows NT 6.3; Win64; x64; rv:75.0) Gecko/20100101 Firefox/75.0","1.07","","2361","","<img src = 'img/A0-B0-L1-W1.jpg' width = '600'>","1","11","","","","",""
"","html-keyboard-response","46","700199","0.0-3.0-1.10","partial","Male","100","United States of America","","C189879","WA","freqGain","Mozilla/5.0 (Windows NT 6.3; Win64; x64; rv:75.0) Gecko/20100101 Firefox/75.0","1.07","","null","","You avoided this hive. You earned <b>0 </b>points.","","11","null","0","53","",""
"","html-button-response","47","702099","0.0-3.0-0.11","partial","Male","100","United States of America","","C189879","WA","freqGain","Mozilla/5.0 (Windows NT 6.3; Win64; x64; rv:75.0) Gecko/20100101 Firefox/75.0","1.07","","1899","","<img src = 'img/A0-B1-L1-W0.jpg' width = '600'>","0","12","","","","",""
"","html-keyboard-response","48","704105","0.0-3.0-1.11","partial","Male","100","United States of America","","C189879","WA","freqGain","Mozilla/5.0 (Windows NT 6.3; Win64; x64; rv:75.0) Gecko/20100101 Firefox/75.0","1.07","","null","","Ouch, you were stung! You lost <b>-1 </b>point.","","12","null","-1","52","",""
"","html-button-response","49","706019","0.0-3.0-0.12","partial","Male","100","United States of America","","C189879","WA","freqGain","Mozilla/5.0 (Windows NT 6.3; Win64; x64; rv:75.0) Gecko/20100101 Firefox/75.0","1.07","","1913","","<img src = 'img/A0-B1-L1-W1.jpg' width = '600'>","0","13","","","","",""
"","html-keyboard-response","50","708026","0.0-3.0-1.12","partial","Male","100","United States of America","","C189879","WA","freqGain","Mozilla/5.0 (Windows NT 6.3; Win64; x64; rv:75.0) Gecko/20100101 Firefox/75.0","1.07","","null","","Ouch, you were stung! You lost <b>-1 </b>point.","","13","null","-1","51","",""
"","html-button-response","51","709846","0.0-3.0-0.13","partial","Male","100","United States of America","","C189879","WA","freqGain","Mozilla/5.0 (Windows NT 6.3; Win64; x64; rv:75.0) Gecko/20100101 Firefox/75.0","1.07","","1819","","<img src = 'img/A1-B1-L0-W0.jpg' width = '600'>","0","14","","","","",""
"","html-keyboard-response","52","711855","0.0-3.0-1.13","partial","Male","100","United States of America","","C189879","WA","freqGain","Mozilla/5.0 (Windows NT 6.3; Win64; x64; rv:75.0) Gecko/20100101 Firefox/75.0","1.07","","null","","Ouch, you were stung! You lost <b>-1 </b>point.","","14","null","-1","50","",""
"","html-button-response","53","713858","0.0-3.0-0.14","partial","Male","100","United States of America","","C189879","WA","freqGain","Mozilla/5.0 (Windows NT 6.3; Win64; x64; rv:75.0) Gecko/20100101 Firefox/75.0","1.07","","2003","","<img src = 'img/A0-B0-L0-W0.jpg' width = '600'>","1","15","","","","",""
"","html-keyboard-response","54","715869","0.0-3.0-1.14","partial","Male","100","United States of America","","C189879","WA","freqGain","Mozilla/5.0 (Windows NT 6.3; Win64; x64; rv:75.0) Gecko/20100101 Firefox/75.0","1.07","","null","","You avoided this hive. You earned <b>0 </b>points.","","15","null","0","50","",""
"","html-button-response","55","717978","0.0-3.0-0.15","partial","Male","100","United States of America","","C189879","WA","freqGain","Mozilla/5.0 (Windows NT 6.3; Win64; x64; rv:75.0) Gecko/20100101 Firefox/75.0","1.07","","2107","","<img src = 'img/A1-B0-L1-W1.jpg' width = '600'>","0","16","","","","",""
"","html-keyboard-response","56","719994","0.0-3.0-1.15","partial","Male","100","United States of America","","C189879","WA","freqGain","Mozilla/5.0 (Windows NT 6.3; Win64; x64; rv:75.0) Gecko/20100101 Firefox/75.0","1.07","","null","","You successfully harvested honey! You earned <b>3 </b>points.","","16","null","3","53","",""
"","html-button-response","57","721738","0.0-3.0-0.16","partial","Male","100","United States of America","","C189879","WA","freqGain","Mozilla/5.0 (Windows NT 6.3; Win64; x64; rv:75.0) Gecko/20100101 Firefox/75.0","1.07","","1743","","<img src = 'img/A1-B0-L0-W0.jpg' width = '600'>","1","17","","","","",""
"","html-keyboard-response","58","723745","0.0-3.0-1.16","partial","Male","100","United States of America","","C189879","WA","freqGain","Mozilla/5.0 (Windows NT 6.3; Win64; x64; rv:75.0) Gecko/20100101 Firefox/75.0","1.07","","null","","You avoided this hive. You earned <b>0 </b>points.","","17","null","0","53","",""
"","html-button-response","59","725590","0.0-3.0-0.17","partial","Male","100","United States of America","","C189879","WA","freqGain","Mozilla/5.0 (Windows NT 6.3; Win64; x64; rv:75.0) Gecko/20100101 Firefox/75.0","1.07","","1844","","<img src = 'img/A1-B1-L0-W0.jpg' width = '600'>","0","18","","","","",""
"","html-keyboard-response","60","727604","0.0-3.0-1.17","partial","Male","100","United States of America","","C189879","WA","freqGain","Mozilla/5.0 (Windows NT 6.3; Win64; x64; rv:75.0) Gecko/20100101 Firefox/75.0","1.07","","null","","Ouch, you were stung! You lost <b>-1 </b>point.","","18","null","-1","52","",""
"","html-button-response","61","729857","0.0-3.0-0.18","partial","Male","100","United States of America","","C189879","WA","freqGain","Mozilla/5.0 (Windows NT 6.3; Win64; x64; rv:75.0) Gecko/20100101 Firefox/75.0","1.07","","2252","","<img src = 'img/A0-B0-L1-W0.jpg' width = '600'>","1","19","","","","",""
"","html-keyboard-response","62","731869","0.0-3.0-1.18","partial","Male","100","United States of America","","C189879","WA","freqGain","Mozilla/5.0 (Windows NT 6.3; Win64; x64; rv:75.0) Gecko/20100101 Firefox/75.0","1.07","","null","","You avoided this hive. You earned <b>0 </b>points.","","19","null","0","52","",""
"","html-button-response","63","732866","0.0-3.0-0.19","partial","Male","100","United States of America","","C189879","WA","freqGain","Mozilla/5.0 (Windows NT 6.3; Win64; x64; rv:75.0) Gecko/20100101 Firefox/75.0","1.07","","994","","<img src = 'img/A1-B1-L1-W1.jpg' width = '600'>","1","20","","","","",""
"","html-keyboard-response","64","734869","0.0-3.0-1.19","partial","Male","100","United States of America","","C189879","WA","freqGain","Mozilla/5.0 (Windows NT 6.3; Win64; x64; rv:75.0) Gecko/20100101 Firefox/75.0","1.07","","null","","You avoided this hive. You earned <b>0 </b>points.","","20","null","0","52","",""
"","html-button-response","65","736545","0.0-3.0-0.20","partial","Male","100","United States of America","","C189879","WA","freqGain","Mozilla/5.0 (Windows NT 6.3; Win64; x64; rv:75.0) Gecko/20100101 Firefox/75.0","1.07","","1676","","<img src = 'img/A1-B0-L1-W0.jpg' width = '600'>","0","21","","","","",""
"","html-keyboard-response","66","738557","0.0-3.0-1.20","partial","Male","100","United States of America","","C189879","WA","freqGain","Mozilla/5.0 (Windows NT 6.3; Win64; x64; rv:75.0) Gecko/20100101 Firefox/75.0","1.07","","null","","Ouch, you were stung! You lost <b>-1 </b>point.","","21","null","-1","51","",""
"","html-button-response","67","740132","0.0-3.0-0.21","partial","Male","100","United States of America","","C189879","WA","freqGain","Mozilla/5.0 (Windows NT 6.3; Win64; x64; rv:75.0) Gecko/20100101 Firefox/75.0","1.07","","1575","","<img src = 'img/A1-B0-L0-W1.jpg' width = '600'>","0","22","","","","",""
"","html-keyboard-response","68","742135","0.0-3.0-1.21","partial","Male","100","United States of America","","C189879","WA","freqGain","Mozilla/5.0 (Windows NT 6.3; Win64; x64; rv:75.0) Gecko/20100101 Firefox/75.0","1.07","","null","","You successfully harvested honey! You earned <b>3 </b>points.","","22","null","3","54","",""
"","html-button-response","69","744436","0.0-3.0-0.22","partial","Male","100","United States of America","","C189879","WA","freqGain","Mozilla/5.0 (Windows NT 6.3; Win64; x64; rv:75.0) Gecko/20100101 Firefox/75.0","1.07","","2301","","<img src = 'img/A0-B1-L1-W0.jpg' width = '600'>","1","23","","","","",""
"","html-keyboard-response","70","746447","0.0-3.0-1.22","partial","Male","100","United States of America","","C189879","WA","freqGain","Mozilla/5.0 (Windows NT 6.3; Win64; x64; rv:75.0) Gecko/20100101 Firefox/75.0","1.07","","null","","You avoided this hive. You earned <b>0 </b>points.","","23","null","0","54","",""
"","html-button-response","71","748532","0.0-3.0-0.23","partial","Male","100","United States of America","","C189879","WA","freqGain","Mozilla/5.0 (Windows NT 6.3; Win64; x64; rv:75.0) Gecko/20100101 Firefox/75.0","1.07","","2085","","<img src = 'img/A0-B0-L1-W1.jpg' width = '600'>","1","24","","","","",""
"","html-keyboard-response","72","750540","0.0-3.0-1.23","partial","Male","100","United States of America","","C189879","WA","freqGain","Mozilla/5.0 (Windows NT 6.3; Win64; x64; rv:75.0) Gecko/20100101 Firefox/75.0","1.07","","null","","You avoided this hive. You earned <b>0 </b>points.","","24","null","0","54","",""
"","html-button-response","73","752284","0.0-3.0-0.24","partial","Male","100","United States of America","","C189879","WA","freqGain","Mozilla/5.0 (Windows NT 6.3; Win64; x64; rv:75.0) Gecko/20100101 Firefox/75.0","1.07","","1743","","<img src = 'img/A0-B1-L1-W1.jpg' width = '600'>","0","25","","","","",""
"","html-keyboard-response","74","754290","0.0-3.0-1.24","partial","Male","100","United States of America","","C189879","WA","freqGain","Mozilla/5.0 (Windows NT 6.3; Win64; x64; rv:75.0) Gecko/20100101 Firefox/75.0","1.07","","null","","Ouch, you were stung! You lost <b>-1 </b>point.","","25","null","-1","53","",""
"","html-button-response","75","756075","0.0-3.0-0.25","partial","Male","100","United States of America","","C189879","WA","freqGain","Mozilla/5.0 (Windows NT 6.3; Win64; x64; rv:75.0) Gecko/20100101 Firefox/75.0","1.07","","1784","","<img src = 'img/A0-B0-L0-W1.jpg' width = '600'>","0","26","","","","",""
"","html-keyboard-response","76","758087","0.0-3.0-1.25","partial","Male","100","United States of America","","C189879","WA","freqGain","Mozilla/5.0 (Windows NT 6.3; Win64; x64; rv:75.0) Gecko/20100101 Firefox/75.0","1.07","","null","","Ouch, you were stung! You lost <b>-1 </b>point.","","26","null","-1","52","",""
"","html-button-response","77","760255","0.0-3.0-0.26","partial","Male","100","United States of America","","C189879","WA","freqGain","Mozilla/5.0 (Windows NT 6.3; Win64; x64; rv:75.0) Gecko/20100101 Firefox/75.0","1.07","","2167","","<img src = 'img/A0-B1-L0-W1.jpg' width = '600'>","1","27","","","","",""
"","html-keyboard-response","78","762259","0.0-3.0-1.26","partial","Male","100","United States of America","","C189879","WA","freqGain","Mozilla/5.0 (Windows NT 6.3; Win64; x64; rv:75.0) Gecko/20100101 Firefox/75.0","1.07","","null","","You avoided this hive. You earned <b>0 </b>points.","","27","null","0","52","",""
"","html-button-response","79","763715","0.0-3.0-0.27","partial","Male","100","United States of America","","C189879","WA","freqGain","Mozilla/5.0 (Windows NT 6.3; Win64; x64; rv:75.0) Gecko/20100101 Firefox/75.0","1.07","","1455","","<img src = 'img/A1-B1-L0-W1.jpg' width = '600'>","0","28","","","","",""
"","html-keyboard-response","80","765727","0.0-3.0-1.27","partial","Male","100","United States of America","","C189879","WA","freqGain","Mozilla/5.0 (Windows NT 6.3; Win64; x64; rv:75.0) Gecko/20100101 Firefox/75.0","1.07","","null","","You successfully harvested honey! You earned <b>3 </b>points.","","28","null","3","55","",""
"","html-button-response","81","767295","0.0-3.0-0.28","partial","Male","100","United States of America","","C189879","WA","freqGain","Mozilla/5.0 (Windows NT 6.3; Win64; x64; rv:75.0) Gecko/20100101 Firefox/75.0","1.07","","1567","","<img src = 'img/A1-B1-L1-W0.jpg' width = '600'>","1","29","","","","",""
"","html-keyboard-response","82","769305","0.0-3.0-1.28","partial","Male","100","United States of America","","C189879","WA","freqGain","Mozilla/5.0 (Windows NT 6.3; Win64; x64; rv:75.0) Gecko/20100101 Firefox/75.0","1.07","","null","","You avoided this hive. You earned <b>0 </b>points.","","29","null","0","55","",""
"","html-button-response","83","771298","0.0-3.0-0.29","partial","Male","100","United States of America","","C189879","WA","freqGain","Mozilla/5.0 (Windows NT 6.3; Win64; x64; rv:75.0) Gecko/20100101 Firefox/75.0","1.07","","1992","","<img src = 'img/A1-B0-L1-W1.jpg' width = '600'>","0","30","","","","",""
"","html-keyboard-response","84","773306","0.0-3.0-1.29","partial","Male","100","United States of America","","C189879","WA","freqGain","Mozilla/5.0 (Windows NT 6.3; Win64; x64; rv:75.0) Gecko/20100101 Firefox/75.0","1.07","","null","","You successfully harvested honey! You earned <b>3 </b>points.","","30","null","3","58","",""
"","html-button-response","85","774914","0.0-3.0-0.30","partial","Male","100","United States of America","","C189879","WA","freqGain","Mozilla/5.0 (Windows NT 6.3; Win64; x64; rv:75.0) Gecko/20100101 Firefox/75.0","1.07","","1608","","<img src = 'img/A0-B1-L0-W0.jpg' width = '600'>","1","31","","","","",""
"","html-keyboard-response","86","776930","0.0-3.0-1.30","partial","Male","100","United States of America","","C189879","WA","freqGain","Mozilla/5.0 (Windows NT 6.3; Win64; x64; rv:75.0) Gecko/20100101 Firefox/75.0","1.07","","null","","You avoided this hive. You earned <b>0 </b>points.","","31","null","0","58","",""
"","html-button-response","87","778362","0.0-3.0-0.31","partial","Male","100","United States of America","","C189879","WA","freqGain","Mozilla/5.0 (Windows NT 6.3; Win64; x64; rv:75.0) Gecko/20100101 Firefox/75.0","1.07","","1432","","<img src = 'img/A0-B0-L0-W0.jpg' width = '600'>","1","32","","","","",""
"","html-keyboard-response","88","780367","0.0-3.0-1.31","partial","Male","100","United States of America","","C189879","WA","freqGain","Mozilla/5.0 (Windows NT 6.3; Win64; x64; rv:75.0) Gecko/20100101 Firefox/75.0","1.07","","null","","You avoided this hive. You earned <b>0 </b>points.","","32","null","0","58","",""
"","html-button-response","89","783894","0.0-3.0-0.32","partial","Male","100","United States of America","","C189879","WA","freqGain","Mozilla/5.0 (Windows NT 6.3; Win64; x64; rv:75.0) Gecko/20100101 Firefox/75.0","1.07","","3526","","<img src = 'img/A0-B0-L1-W0.jpg' width = '600'>","0","33","","","","",""
"","html-keyboard-response","90","785899","0.0-3.0-1.32","partial","Male","100","United States of America","","C189879","WA","freqGain","Mozilla/5.0 (Windows NT 6.3; Win64; x64; rv:75.0) Gecko/20100101 Firefox/75.0","1.07","","null","","Ouch, you were stung! You lost <b>-1 </b>point.","","33","null","-1","57","",""
"","html-button-response","91","788534","0.0-3.0-0.33","partial","Male","100","United States of America","","C189879","WA","freqGain","Mozilla/5.0 (Windows NT 6.3; Win64; x64; rv:75.0) Gecko/20100101 Firefox/75.0","1.07","","2634","","<img src = 'img/A1-B1-L1-W0.jpg' width = '600'>","0","34","","","","",""
"","html-keyboard-response","92","790539","0.0-3.0-1.33","partial","Male","100","United States of America","","C189879","WA","freqGain","Mozilla/5.0 (Windows NT 6.3; Win64; x64; rv:75.0) Gecko/20100101 Firefox/75.0","1.07","","null","","Ouch, you were stung! You lost <b>-1 </b>point.","","34","null","-1","56","",""
"","html-button-response","93","791930","0.0-3.0-0.34","partial","Male","100","United States of America","","C189879","WA","freqGain","Mozilla/5.0 (Windows NT 6.3; Win64; x64; rv:75.0) Gecko/20100101 Firefox/75.0","1.07","","1390","","<img src = 'img/A0-B0-L0-W1.jpg' width = '600'>","1","35","","","","",""
"","html-keyboard-response","94","793945","0.0-3.0-1.34","partial","Male","100","United States of America","","C189879","WA","freqGain","Mozilla/5.0 (Windows NT 6.3; Win64; x64; rv:75.0) Gecko/20100101 Firefox/75.0","1.07","","null","","You avoided this hive. You earned <b>0 </b>points.","","35","null","0","56","",""
"","html-button-response","95","795137","0.0-3.0-0.35","partial","Male","100","United States of America","","C189879","WA","freqGain","Mozilla/5.0 (Windows NT 6.3; Win64; x64; rv:75.0) Gecko/20100101 Firefox/75.0","1.07","","1192","","<img src = 'img/A0-B1-L1-W1.jpg' width = '600'>","1","36","","","","",""
"","html-keyboard-response","96","797148","0.0-3.0-1.35","partial","Male","100","United States of America","","C189879","WA","freqGain","Mozilla/5.0 (Windows NT 6.3; Win64; x64; rv:75.0) Gecko/20100101 Firefox/75.0","1.07","","null","","You avoided this hive. You earned <b>0 </b>points.","","36","null","0","56","",""
"","html-button-response","97","798061","0.0-3.0-0.36","partial","Male","100","United States of America","","C189879","WA","freqGain","Mozilla/5.0 (Windows NT 6.3; Win64; x64; rv:75.0) Gecko/20100101 Firefox/75.0","1.07","","912","","<img src = 'img/A0-B0-L0-W0.jpg' width = '600'>","1","37","","","","",""
"","html-keyboard-response","98","800069","0.0-3.0-1.36","partial","Male","100","United States of America","","C189879","WA","freqGain","Mozilla/5.0 (Windows NT 6.3; Win64; x64; rv:75.0) Gecko/20100101 Firefox/75.0","1.07","","null","","You avoided this hive. You earned <b>0 </b>points.","","37","null","0","56","",""
"","html-button-response","99","801013","0.0-3.0-0.37","partial","Male","100","United States of America","","C189879","WA","freqGain","Mozilla/5.0 (Windows NT 6.3; Win64; x64; rv:75.0) Gecko/20100101 Firefox/75.0","1.07","","943","","<img src = 'img/A1-B0-L0-W1.jpg' width = '600'>","1","38","","","","",""
"","html-keyboard-response","100","803023","0.0-3.0-1.37","partial","Male","100","United States of America","","C189879","WA","freqGain","Mozilla/5.0 (Windows NT 6.3; Win64; x64; rv:75.0) Gecko/20100101 Firefox/75.0","1.07","","null","","You avoided this hive. You earned <b>0 </b>points.","","38","null","0","56","",""
"","html-button-response","101","805093","0.0-3.0-0.38","partial","Male","100","United States of America","","C189879","WA","freqGain","Mozilla/5.0 (Windows NT 6.3; Win64; x64; rv:75.0) Gecko/20100101 Firefox/75.0","1.07","","2070","","<img src = 'img/A1-B0-L1-W0.jpg' width = '600'>","0","39","","","","",""
"","html-keyboard-response","102","807101","0.0-3.0-1.38","partial","Male","100","United States of America","","C189879","WA","freqGain","Mozilla/5.0 (Windows NT 6.3; Win64; x64; rv:75.0) Gecko/20100101 Firefox/75.0","1.07","","null","","Ouch, you were stung! You lost <b>-1 </b>point.","","39","null","-1","55","",""
"","html-button-response","103","809081","0.0-3.0-0.39","partial","Male","100","United States of America","","C189879","WA","freqGain","Mozilla/5.0 (Windows NT 6.3; Win64; x64; rv:75.0) Gecko/20100101 Firefox/75.0","1.07","","1979","","<img src = 'img/A1-B1-L0-W1.jpg' width = '600'>","0","40","","","","",""
"","html-keyboard-response","104","811085","0.0-3.0-1.39","partial","Male","100","United States of America","","C189879","WA","freqGain","Mozilla/5.0 (Windows NT 6.3; Win64; x64; rv:75.0) Gecko/20100101 Firefox/75.0","1.07","","null","","You successfully harvested honey! You earned <b>3 </b>points.","","40","null","3","58","",""
"","html-button-response","105","812892","0.0-3.0-0.40","partial","Male","100","United States of America","","C189879","WA","freqGain","Mozilla/5.0 (Windows NT 6.3; Win64; x64; rv:75.0) Gecko/20100101 Firefox/75.0","1.07","","1807","","<img src = 'img/A0-B1-L1-W0.jpg' width = '600'>","1","41","","","","",""
"","html-keyboard-response","106","814897","0.0-3.0-1.40","partial","Male","100","United States of America","","C189879","WA","freqGain","Mozilla/5.0 (Windows NT 6.3; Win64; x64; rv:75.0) Gecko/20100101 Firefox/75.0","1.07","","null","","You avoided this hive. You earned <b>0 </b>points.","","41","null","0","58","",""
"","html-button-response","107","815952","0.0-3.0-0.41","partial","Male","100","United States of America","","C189879","WA","freqGain","Mozilla/5.0 (Windows NT 6.3; Win64; x64; rv:75.0) Gecko/20100101 Firefox/75.0","1.07","","1054","","<img src = 'img/A1-B0-L1-W1.jpg' width = '600'>","1","42","","","","",""
"","html-keyboard-response","108","817960","0.0-3.0-1.41","partial","Male","100","United States of America","","C189879","WA","freqGain","Mozilla/5.0 (Windows NT 6.3; Win64; x64; rv:75.0) Gecko/20100101 Firefox/75.0","1.07","","null","","You avoided this hive. You earned <b>0 </b>points.","","42","null","0","58","",""
"","html-button-response","109","818772","0.0-3.0-0.42","partial","Male","100","United States of America","","C189879","WA","freqGain","Mozilla/5.0 (Windows NT 6.3; Win64; x64; rv:75.0) Gecko/20100101 Firefox/75.0","1.07","","812","","<img src = 'img/A1-B1-L1-W1.jpg' width = '600'>","0","43","","","","",""
"","html-keyboard-response","110","820788","0.0-3.0-1.42","partial","Male","100","United States of America","","C189879","WA","freqGain","Mozilla/5.0 (Windows NT 6.3; Win64; x64; rv:75.0) Gecko/20100101 Firefox/75.0","1.07","","null","","You successfully harvested honey! You earned <b>3 </b>points.","","43","null","3","61","",""
"","html-button-response","111","821792","0.0-3.0-0.43","partial","Male","100","United States of America","","C189879","WA","freqGain","Mozilla/5.0 (Windows NT 6.3; Win64; x64; rv:75.0) Gecko/20100101 Firefox/75.0","1.07","","1003","","<img src = 'img/A1-B0-L0-W0.jpg' width = '600'>","1","44","","","","",""
"","html-keyboard-response","112","823803","0.0-3.0-1.43","partial","Male","100","United States of America","","C189879","WA","freqGain","Mozilla/5.0 (Windows NT 6.3; Win64; x64; rv:75.0) Gecko/20100101 Firefox/75.0","1.07","","null","","You avoided this hive. You earned <b>0 </b>points.","","44","null","0","61","",""
"","html-button-response","113","826100","0.0-3.0-0.44","partial","Male","100","United States of America","","C189879","WA","freqGain","Mozilla/5.0 (Windows NT 6.3; Win64; x64; rv:75.0) Gecko/20100101 Firefox/75.0","1.07","","2297","","<img src = 'img/A0-B1-L0-W0.jpg' width = '600'>","1","45","","","","",""
"","html-keyboard-response","114","828115","0.0-3.0-1.44","partial","Male","100","United States of America","","C189879","WA","freqGain","Mozilla/5.0 (Windows NT 6.3; Win64; x64; rv:75.0) Gecko/20100101 Firefox/75.0","1.07","","null","","You avoided this hive. You earned <b>0 </b>points.","","45","null","0","61","",""
"","html-button-response","115","829179","0.0-3.0-0.45","partial","Male","100","United States of America","","C189879","WA","freqGain","Mozilla/5.0 (Windows NT 6.3; Win64; x64; rv:75.0) Gecko/20100101 Firefox/75.0","1.07","","1063","","<img src = 'img/A0-B0-L1-W1.jpg' width = '600'>","0","46","","","","",""
"","html-keyboard-response","116","831193","0.0-3.0-1.45","partial","Male","100","United States of America","","C189879","WA","freqGain","Mozilla/5.0 (Windows NT 6.3; Win64; x64; rv:75.0) Gecko/20100101 Firefox/75.0","1.07","","null","","Ouch, you were stung! You lost <b>-1 </b>point.","","46","null","-1","60","",""
"","html-button-response","117","832871","0.0-3.0-0.46","partial","Male","100","United States of America","","C189879","WA","freqGain","Mozilla/5.0 (Windows NT 6.3; Win64; x64; rv:75.0) Gecko/20100101 Firefox/75.0","1.07","","1677","","<img src = 'img/A1-B1-L0-W0.jpg' width = '600'>","0","47","","","","",""
"","html-keyboard-response","118","834881","0.0-3.0-1.46","partial","Male","100","United States of America","","C189879","WA","freqGain","Mozilla/5.0 (Windows NT 6.3; Win64; x64; rv:75.0) Gecko/20100101 Firefox/75.0","1.07","","null","","Ouch, you were stung! You lost <b>-1 </b>point.","","47","null","-1","59","",""
"","html-button-response","119","836451","0.0-3.0-0.47","partial","Male","100","United States of America","","C189879","WA","freqGain","Mozilla/5.0 (Windows NT 6.3; Win64; x64; rv:75.0) Gecko/20100101 Firefox/75.0","1.07","","1568","","<img src = 'img/A0-B1-L0-W1.jpg' width = '600'>","1","48","","","","",""
"","html-keyboard-response","120","838459","0.0-3.0-1.47","partial","Male","100","United States of America","","C189879","WA","freqGain","Mozilla/5.0 (Windows NT 6.3; Win64; x64; rv:75.0) Gecko/20100101 Firefox/75.0","1.07","","null","","You avoided this hive. You earned <b>0 </b>points.","","48","null","0","59","",""
"","html-button-response","121","839931","0.0-3.0-0.48","partial","Male","100","United States of America","","C189879","WA","freqGain","Mozilla/5.0 (Windows NT 6.3; Win64; x64; rv:75.0) Gecko/20100101 Firefox/75.0","1.07","","1472","","<img src = 'img/A0-B0-L1-W0.jpg' width = '600'>","1","49","","","","",""
"","html-keyboard-response","122","841943","0.0-3.0-1.48","partial","Male","100","United States of America","","C189879","WA","freqGain","Mozilla/5.0 (Windows NT 6.3; Win64; x64; rv:75.0) Gecko/20100101 Firefox/75.0","1.07","","null","","You avoided this hive. You earned <b>0 </b>points.","","49","null","0","59","",""
"","html-button-response","123","844158","0.0-3.0-0.49","partial","Male","100","United States of America","","C189879","WA","freqGain","Mozilla/5.0 (Windows NT 6.3; Win64; x64; rv:75.0) Gecko/20100101 Firefox/75.0","1.07","","2215","","<img src = 'img/A0-B1-L0-W1.jpg' width = '600'>","1","50","","","","",""
"","html-keyboard-response","124","846162","0.0-3.0-1.49","partial","Male","100","United States of America","","C189879","WA","freqGain","Mozilla/5.0 (Windows NT 6.3; Win64; x64; rv:75.0) Gecko/20100101 Firefox/75.0","1.07","","null","","You avoided this hive. You earned <b>0 </b>points.","","50","null","0","59","",""
"","html-button-response","125","847654","0.0-3.0-0.50","partial","Male","100","United States of America","","C189879","WA","freqGain","Mozilla/5.0 (Windows NT 6.3; Win64; x64; rv:75.0) Gecko/20100101 Firefox/75.0","1.07","","1492","","<img src = 'img/A1-B1-L0-W1.jpg' width = '600'>","0","51","","","","",""
"","html-keyboard-response","126","849661","0.0-3.0-1.50","partial","Male","100","United States of America","","C189879","WA","freqGain","Mozilla/5.0 (Windows NT 6.3; Win64; x64; rv:75.0) Gecko/20100101 Firefox/75.0","1.07","","null","","You successfully harvested honey! You earned <b>3 </b>points.","","51","null","3","62","",""
"","html-button-response","127","851370","0.0-3.0-0.51","partial","Male","100","United States of America","","C189879","WA","freqGain","Mozilla/5.0 (Windows NT 6.3; Win64; x64; rv:75.0) Gecko/20100101 Firefox/75.0","1.07","","1707","","<img src = 'img/A0-B1-L1-W0.jpg' width = '600'>","1","52","","","","",""
"","html-keyboard-response","128","853380","0.0-3.0-1.51","partial","Male","100","United States of America","","C189879","WA","freqGain","Mozilla/5.0 (Windows NT 6.3; Win64; x64; rv:75.0) Gecko/20100101 Firefox/75.0","1.07","","null","","You avoided this hive. You earned <b>0 </b>points.","","52","null","0","62","",""
"","html-button-response","129","854610","0.0-3.0-0.52","partial","Male","100","United States of America","","C189879","WA","freqGain","Mozilla/5.0 (Windows NT 6.3; Win64; x64; rv:75.0) Gecko/20100101 Firefox/75.0","1.07","","1229","","<img src = 'img/A1-B0-L0-W1.jpg' width = '600'>","0","53","","","","",""
"","html-keyboard-response","130","856615","0.0-3.0-1.52","partial","Male","100","United States of America","","C189879","WA","freqGain","Mozilla/5.0 (Windows NT 6.3; Win64; x64; rv:75.0) Gecko/20100101 Firefox/75.0","1.07","","null","","You successfully harvested honey! You earned <b>3 </b>points.","","53","null","3","65","",""
"","html-button-response","131","858590","0.0-3.0-0.53","partial","Male","100","United States of America","","C189879","WA","freqGain","Mozilla/5.0 (Windows NT 6.3; Win64; x64; rv:75.0) Gecko/20100101 Firefox/75.0","1.07","","1974","","<img src = 'img/A0-B0-L0-W1.jpg' width = '600'>","1","54","","","","",""
"","html-keyboard-response","132","860599","0.0-3.0-1.53","partial","Male","100","United States of America","","C189879","WA","freqGain","Mozilla/5.0 (Windows NT 6.3; Win64; x64; rv:75.0) Gecko/20100101 Firefox/75.0","1.07","","null","","You avoided this hive. You earned <b>0 </b>points.","","54","null","0","65","",""
"","html-button-response","133","862277","0.0-3.0-0.54","partial","Male","100","United States of America","","C189879","WA","freqGain","Mozilla/5.0 (Windows NT 6.3; Win64; x64; rv:75.0) Gecko/20100101 Firefox/75.0","1.07","","1678","","<img src = 'img/A0-B0-L0-W0.jpg' width = '600'>","1","55","","","","",""
"","html-keyboard-response","134","864285","0.0-3.0-1.54","partial","Male","100","United States of America","","C189879","WA","freqGain","Mozilla/5.0 (Windows NT 6.3; Win64; x64; rv:75.0) Gecko/20100101 Firefox/75.0","1.07","","null","","You avoided this hive. You earned <b>0 </b>points.","","55","null","0","65","",""
"","html-button-response","135","865973","0.0-3.0-0.55","partial","Male","100","United States of America","","C189879","WA","freqGain","Mozilla/5.0 (Windows NT 6.3; Win64; x64; rv:75.0) Gecko/20100101 Firefox/75.0","1.07","","1685","","<img src = 'img/A1-B0-L0-W0.jpg' width = '600'>","0","56","","","","",""
"","html-keyboard-response","136","867988","0.0-3.0-1.55","partial","Male","100","United States of America","","C189879","WA","freqGain","Mozilla/5.0 (Windows NT 6.3; Win64; x64; rv:75.0) Gecko/20100101 Firefox/75.0","1.07","","null","","Ouch, you were stung! You lost <b>-1 </b>point.","","56","null","-1","64","",""
"","html-button-response","137","869509","0.0-3.0-0.56","partial","Male","100","United States of America","","C189879","WA","freqGain","Mozilla/5.0 (Windows NT 6.3; Win64; x64; rv:75.0) Gecko/20100101 Firefox/75.0","1.07","","1519","","<img src = 'img/A1-B1-L0-W0.jpg' width = '600'>","1","57","","","","",""
"","html-keyboard-response","138","871520","0.0-3.0-1.56","partial","Male","100","United States of America","","C189879","WA","freqGain","Mozilla/5.0 (Windows NT 6.3; Win64; x64; rv:75.0) Gecko/20100101 Firefox/75.0","1.07","","null","","You avoided this hive. You earned <b>0 </b>points.","","57","null","0","64","",""
"","html-button-response","139","872988","0.0-3.0-0.57","partial","Male","100","United States of America","","C189879","WA","freqGain","Mozilla/5.0 (Windows NT 6.3; Win64; x64; rv:75.0) Gecko/20100101 Firefox/75.0","1.07","","1467","","<img src = 'img/A0-B1-L1-W1.jpg' width = '600'>","1","58","","","","",""
"","html-keyboard-response","140","875004","0.0-3.0-1.57","partial","Male","100","United States of America","","C189879","WA","freqGain","Mozilla/5.0 (Windows NT 6.3; Win64; x64; rv:75.0) Gecko/20100101 Firefox/75.0","1.07","","null","","You avoided this hive. You earned <b>0 </b>points.","","58","null","0","64","",""
"","html-button-response","141","876884","0.0-3.0-0.58","partial","Male","100","United States of America","","C189879","WA","freqGain","Mozilla/5.0 (Windows NT 6.3; Win64; x64; rv:75.0) Gecko/20100101 Firefox/75.0","1.07","","1879","","<img src = 'img/A1-B1-L1-W0.jpg' width = '600'>","0","59","","","","",""
"","html-keyboard-response","142","878895","0.0-3.0-1.58","partial","Male","100","United States of America","","C189879","WA","freqGain","Mozilla/5.0 (Windows NT 6.3; Win64; x64; rv:75.0) Gecko/20100101 Firefox/75.0","1.07","","null","","Ouch, you were stung! You lost <b>-1 </b>point.","","59","null","-1","63","",""
"","html-button-response","143","880529","0.0-3.0-0.59","partial","Male","100","United States of America","","C189879","WA","freqGain","Mozilla/5.0 (Windows NT 6.3; Win64; x64; rv:75.0) Gecko/20100101 Firefox/75.0","1.07","","1632","","<img src = 'img/A0-B0-L1-W1.jpg' width = '600'>","1","60","","","","",""
"","html-keyboard-response","144","882535","0.0-3.0-1.59","partial","Male","100","United States of America","","C189879","WA","freqGain","Mozilla/5.0 (Windows NT 6.3; Win64; x64; rv:75.0) Gecko/20100101 Firefox/75.0","1.07","","null","","You avoided this hive. You earned <b>0 </b>points.","","60","null","0","63","",""
"","html-button-response","145","884328","0.0-3.0-0.60","partial","Male","100","United States of America","","C189879","WA","freqGain","Mozilla/5.0 (Windows NT 6.3; Win64; x64; rv:75.0) Gecko/20100101 Firefox/75.0","1.07","","1792","","<img src = 'img/A1-B0-L1-W1.jpg' width = '600'>","0","61","","","","",""
"","html-keyboard-response","146","886331","0.0-3.0-1.60","partial","Male","100","United States of America","","C189879","WA","freqGain","Mozilla/5.0 (Windows NT 6.3; Win64; x64; rv:75.0) Gecko/20100101 Firefox/75.0","1.07","","null","","You successfully harvested honey! You earned <b>3 </b>points.","","61","null","3","66","",""
"","html-button-response","147","888004","0.0-3.0-0.61","partial","Male","100","United States of America","","C189879","WA","freqGain","Mozilla/5.0 (Windows NT 6.3; Win64; x64; rv:75.0) Gecko/20100101 Firefox/75.0","1.07","","1671","","<img src = 'img/A1-B1-L1-W1.jpg' width = '600'>","1","62","","","","",""
"","html-keyboard-response","148","890020","0.0-3.0-1.61","partial","Male","100","United States of America","","C189879","WA","freqGain","Mozilla/5.0 (Windows NT 6.3; Win64; x64; rv:75.0) Gecko/20100101 Firefox/75.0","1.07","","null","","You avoided this hive. You earned <b>0 </b>points.","","62","null","0","66","",""
"","html-button-response","149","891728","0.0-3.0-0.62","partial","Male","100","United States of America","","C189879","WA","freqGain","Mozilla/5.0 (Windows NT 6.3; Win64; x64; rv:75.0) Gecko/20100101 Firefox/75.0","1.07","","1707","","<img src = 'img/A0-B1-L0-W0.jpg' width = '600'>","1","63","","","","",""
"","html-keyboard-response","150","893738","0.0-3.0-1.62","partial","Male","100","United States of America","","C189879","WA","freqGain","Mozilla/5.0 (Windows NT 6.3; Win64; x64; rv:75.0) Gecko/20100101 Firefox/75.0","1.07","","null","","You avoided this hive. You earned <b>0 </b>points.","","63","null","0","66","",""
"","html-button-response","151","895327","0.0-3.0-0.63","partial","Male","100","United States of America","","C189879","WA","freqGain","Mozilla/5.0 (Windows NT 6.3; Win64; x64; rv:75.0) Gecko/20100101 Firefox/75.0","1.07","","1588","","<img src = 'img/A1-B0-L1-W0.jpg' width = '600'>","1","64","","","","",""
"","html-keyboard-response","152","897331","0.0-3.0-1.63","partial","Male","100","United States of America","","C189879","WA","freqGain","Mozilla/5.0 (Windows NT 6.3; Win64; x64; rv:75.0) Gecko/20100101 Firefox/75.0","1.07","","null","","You avoided this hive. You earned <b>0 </b>points.","","64","null","0","66","",""
"","html-button-response","153","899067","0.0-3.0-0.64","partial","Male","100","United States of America","","C189879","WA","freqGain","Mozilla/5.0 (Windows NT 6.3; Win64; x64; rv:75.0) Gecko/20100101 Firefox/75.0","1.07","","1735","","<img src = 'img/A1-B1-L1-W1.jpg' width = '600'>","0","65","","","","",""
"","html-keyboard-response","154","901081","0.0-3.0-1.64","partial","Male","100","United States of America","","C189879","WA","freqGain","Mozilla/5.0 (Windows NT 6.3; Win64; x64; rv:75.0) Gecko/20100101 Firefox/75.0","1.07","","null","","You successfully harvested honey! You earned <b>3 </b>points.","","65","null","3","69","",""
"","html-button-response","155","902767","0.0-3.0-0.65","partial","Male","100","United States of America","","C189879","WA","freqGain","Mozilla/5.0 (Windows NT 6.3; Win64; x64; rv:75.0) Gecko/20100101 Firefox/75.0","1.07","","1685","","<img src = 'img/A0-B1-L1-W1.jpg' width = '600'>","1","66","","","","",""
"","html-keyboard-response","156","904769","0.0-3.0-1.65","partial","Male","100","United States of America","","C189879","WA","freqGain","Mozilla/5.0 (Windows NT 6.3; Win64; x64; rv:75.0) Gecko/20100101 Firefox/75.0","1.07","","null","","You avoided this hive. You earned <b>0 </b>points.","","66","null","0","69","",""
"","html-button-response","157","906507","0.0-3.0-0.66","partial","Male","100","United States of America","","C189879","WA","freqGain","Mozilla/5.0 (Windows NT 6.3; Win64; x64; rv:75.0) Gecko/20100101 Firefox/75.0","1.07","","1738","","<img src = 'img/A0-B1-L1-W0.jpg' width = '600'>","1","67","","","","",""
"","html-keyboard-response","158","908518","0.0-3.0-1.66","partial","Male","100","United States of America","","C189879","WA","freqGain","Mozilla/5.0 (Windows NT 6.3; Win64; x64; rv:75.0) Gecko/20100101 Firefox/75.0","1.07","","null","","You avoided this hive. You earned <b>0 </b>points.","","67","null","0","69","",""
"","html-button-response","159","909567","0.0-3.0-0.67","partial","Male","100","United States of America","","C189879","WA","freqGain","Mozilla/5.0 (Windows NT 6.3; Win64; x64; rv:75.0) Gecko/20100101 Firefox/75.0","1.07","","1048","","<img src = 'img/A1-B1-L1-W0.jpg' width = '600'>","0","68","","","","",""
"","html-keyboard-response","160","911581","0.0-3.0-1.67","partial","Male","100","United States of America","","C189879","WA","freqGain","Mozilla/5.0 (Windows NT 6.3; Win64; x64; rv:75.0) Gecko/20100101 Firefox/75.0","1.07","","null","","Ouch, you were stung! You lost <b>-1 </b>point.","","68","null","-1","68","",""
"","html-button-response","161","913334","0.0-3.0-0.68","partial","Male","100","United States of America","","C189879","WA","freqGain","Mozilla/5.0 (Windows NT 6.3; Win64; x64; rv:75.0) Gecko/20100101 Firefox/75.0","1.07","","1752","","<img src = 'img/A0-B0-L0-W1.jpg' width = '600'>","0","69","","","","",""
"","html-keyboard-response","162","915347","0.0-3.0-1.68","partial","Male","100","United States of America","","C189879","WA","freqGain","Mozilla/5.0 (Windows NT 6.3; Win64; x64; rv:75.0) Gecko/20100101 Firefox/75.0","1.07","","null","","Ouch, you were stung! You lost <b>-1 </b>point.","","69","null","-1","67","",""
"","html-button-response","163","916906","0.0-3.0-0.69","partial","Male","100","United States of America","","C189879","WA","freqGain","Mozilla/5.0 (Windows NT 6.3; Win64; x64; rv:75.0) Gecko/20100101 Firefox/75.0","1.07","","1558","","<img src = 'img/A0-B1-L0-W0.jpg' width = '600'>","1","70","","","","",""
"","html-keyboard-response","164","918908","0.0-3.0-1.69","partial","Male","100","United States of America","","C189879","WA","freqGain","Mozilla/5.0 (Windows NT 6.3; Win64; x64; rv:75.0) Gecko/20100101 Firefox/75.0","1.07","","null","","You avoided this hive. You earned <b>0 </b>points.","","70","null","0","67","",""
"","html-button-response","165","920154","0.0-3.0-0.70","partial","Male","100","United States of America","","C189879","WA","freqGain","Mozilla/5.0 (Windows NT 6.3; Win64; x64; rv:75.0) Gecko/20100101 Firefox/75.0","1.07","","1243","","<img src = 'img/A1-B1-L0-W0.jpg' width = '600'>","0","71","","","","",""
"","html-keyboard-response","166","922159","0.0-3.0-1.70","partial","Male","100","United States of America","","C189879","WA","freqGain","Mozilla/5.0 (Windows NT 6.3; Win64; x64; rv:75.0) Gecko/20100101 Firefox/75.0","1.07","","null","","Ouch, you were stung! You lost <b>-1 </b>point.","","71","null","-1","66","",""
"","html-button-response","167","923106","0.0-3.0-0.71","partial","Male","100","United States of America","","C189879","WA","freqGain","Mozilla/5.0 (Windows NT 6.3; Win64; x64; rv:75.0) Gecko/20100101 Firefox/75.0","1.07","","947","","<img src = 'img/A1-B0-L0-W1.jpg' width = '600'>","0","72","","","","",""
"","html-keyboard-response","168","925112","0.0-3.0-1.71","partial","Male","100","United States of America","","C189879","WA","freqGain","Mozilla/5.0 (Windows NT 6.3; Win64; x64; rv:75.0) Gecko/20100101 Firefox/75.0","1.07","","null","","You successfully harvested honey! You earned <b>3 </b>points.","","72","null","3","69","",""
"","html-button-response","169","925905","0.0-3.0-0.72","partial","Male","100","United States of America","","C189879","WA","freqGain","Mozilla/5.0 (Windows NT 6.3; Win64; x64; rv:75.0) Gecko/20100101 Firefox/75.0","1.07","","793","","<img src = 'img/A1-B0-L1-W0.jpg' width = '600'>","0","73","","","","",""
"","html-keyboard-response","170","927908","0.0-3.0-1.72","partial","Male","100","United States of America","","C189879","WA","freqGain","Mozilla/5.0 (Windows NT 6.3; Win64; x64; rv:75.0) Gecko/20100101 Firefox/75.0","1.07","","null","","Ouch, you were stung! You lost <b>-1 </b>point.","","73","null","-1","68","",""
"","html-button-response","171","929445","0.0-3.0-0.73","partial","Male","100","United States of America","","C189879","WA","freqGain","Mozilla/5.0 (Windows NT 6.3; Win64; x64; rv:75.0) Gecko/20100101 Firefox/75.0","1.07","","1537","","<img src = 'img/A0-B0-L1-W0.jpg' width = '600'>","1","74","","","","",""
"","html-keyboard-response","172","931456","0.0-3.0-1.73","partial","Male","100","United States of America","","C189879","WA","freqGain","Mozilla/5.0 (Windows NT 6.3; Win64; x64; rv:75.0) Gecko/20100101 Firefox/75.0","1.07","","null","","You avoided this hive. You earned <b>0 </b>points.","","74","null","0","68","",""
"","html-button-response","173","932806","0.0-3.0-0.74","partial","Male","100","United States of America","","C189879","WA","freqGain","Mozilla/5.0 (Windows NT 6.3; Win64; x64; rv:75.0) Gecko/20100101 Firefox/75.0","1.07","","1349","","<img src = 'img/A1-B1-L0-W1.jpg' width = '600'>","0","75","","","","",""
"","html-keyboard-response","174","934814","0.0-3.0-1.74","partial","Male","100","United States of America","","C189879","WA","freqGain","Mozilla/5.0 (Windows NT 6.3; Win64; x64; rv:75.0) Gecko/20100101 Firefox/75.0","1.07","","null","","You successfully harvested honey! You earned <b>3 </b>points.","","75","null","3","71","",""
"","html-button-response","175","936465","0.0-3.0-0.75","partial","Male","100","United States of America","","C189879","WA","freqGain","Mozilla/5.0 (Windows NT 6.3; Win64; x64; rv:75.0) Gecko/20100101 Firefox/75.0","1.07","","1650","","<img src = 'img/A0-B0-L1-W1.jpg' width = '600'>","1","76","","","","",""
"","html-keyboard-response","176","938471","0.0-3.0-1.75","partial","Male","100","United States of America","","C189879","WA","freqGain","Mozilla/5.0 (Windows NT 6.3; Win64; x64; rv:75.0) Gecko/20100101 Firefox/75.0","1.07","","null","","You avoided this hive. You earned <b>0 </b>points.","","76","null","0","71","",""
"","html-button-response","177","940565","0.0-3.0-0.76","partial","Male","100","United States of America","","C189879","WA","freqGain","Mozilla/5.0 (Windows NT 6.3; Win64; x64; rv:75.0) Gecko/20100101 Firefox/75.0","1.07","","2094","","<img src = 'img/A0-B0-L0-W0.jpg' width = '600'>","1","77","","","","",""
"","html-keyboard-response","178","942580","0.0-3.0-1.76","partial","Male","100","United States of America","","C189879","WA","freqGain","Mozilla/5.0 (Windows NT 6.3; Win64; x64; rv:75.0) Gecko/20100101 Firefox/75.0","1.07","","null","","You avoided this hive. You earned <b>0 </b>points.","","77","null","0","71","",""
"","html-button-response","179","944193","0.0-3.0-0.77","partial","Male","100","United States of America","","C189879","WA","freqGain","Mozilla/5.0 (Windows NT 6.3; Win64; x64; rv:75.0) Gecko/20100101 Firefox/75.0","1.07","","1613","","<img src = 'img/A0-B1-L0-W1.jpg' width = '600'>","1","78","","","","",""
"","html-keyboard-response","180","946204","0.0-3.0-1.77","partial","Male","100","United States of America","","C189879","WA","freqGain","Mozilla/5.0 (Windows NT 6.3; Win64; x64; rv:75.0) Gecko/20100101 Firefox/75.0","1.07","","null","","You avoided this hive. You earned <b>0 </b>points.","","78","null","0","71","",""
"","html-button-response","181","947964","0.0-3.0-0.78","partial","Male","100","United States of America","","C189879","WA","freqGain","Mozilla/5.0 (Windows NT 6.3; Win64; x64; rv:75.0) Gecko/20100101 Firefox/75.0","1.07","","1759","","<img src = 'img/A1-B0-L0-W0.jpg' width = '600'>","1","79","","","","",""
"","html-keyboard-response","182","949970","0.0-3.0-1.78","partial","Male","100","United States of America","","C189879","WA","freqGain","Mozilla/5.0 (Windows NT 6.3; Win64; x64; rv:75.0) Gecko/20100101 Firefox/75.0","1.07","","null","","You avoided this hive. You earned <b>0 </b>points.","","79","null","0","71","",""
"","html-button-response","183","951524","0.0-3.0-0.79","partial","Male","100","United States of America","","C189879","WA","freqGain","Mozilla/5.0 (Windows NT 6.3; Win64; x64; rv:75.0) Gecko/20100101 Firefox/75.0","1.07","","1552","","<img src = 'img/A1-B0-L1-W1.jpg' width = '600'>","0","80","","","","",""
"","html-keyboard-response","184","953532","0.0-3.0-1.79","partial","Male","100","United States of America","","C189879","WA","freqGain","Mozilla/5.0 (Windows NT 6.3; Win64; x64; rv:75.0) Gecko/20100101 Firefox/75.0","1.07","","null","","You successfully harvested honey! You earned <b>3 </b>points.","","80","null","3","74","",""
"","html-button-response","185","955039","0.0-3.0-0.80","partial","Male","100","United States of America","","C189879","WA","freqGain","Mozilla/5.0 (Windows NT 6.3; Win64; x64; rv:75.0) Gecko/20100101 Firefox/75.0","1.07","","1506","","<img src = 'img/A0-B1-L1-W0.jpg' width = '600'>","1","81","","","","",""
"","html-keyboard-response","186","957048","0.0-3.0-1.80","partial","Male","100","United States of America","","C189879","WA","freqGain","Mozilla/5.0 (Windows NT 6.3; Win64; x64; rv:75.0) Gecko/20100101 Firefox/75.0","1.07","","null","","You avoided this hive. You earned <b>0 </b>points.","","81","null","0","74","",""
"","html-button-response","187","958604","0.0-3.0-0.81","partial","Male","100","United States of America","","C189879","WA","freqGain","Mozilla/5.0 (Windows NT 6.3; Win64; x64; rv:75.0) Gecko/20100101 Firefox/75.0","1.07","","1556","","<img src = 'img/A1-B0-L1-W0.jpg' width = '600'>","1","82","","","","",""
"","html-keyboard-response","188","960610","0.0-3.0-1.81","partial","Male","100","United States of America","","C189879","WA","freqGain","Mozilla/5.0 (Windows NT 6.3; Win64; x64; rv:75.0) Gecko/20100101 Firefox/75.0","1.07","","null","","You avoided this hive. You earned <b>0 </b>points.","","82","null","0","74","",""
"","html-button-response","189","962071","0.0-3.0-0.82","partial","Male","100","United States of America","","C189879","WA","freqGain","Mozilla/5.0 (Windows NT 6.3; Win64; x64; rv:75.0) Gecko/20100101 Firefox/75.0","1.07","","1460","","<img src = 'img/A1-B0-L1-W1.jpg' width = '600'>","0","83","","","","",""
"","html-keyboard-response","190","964078","0.0-3.0-1.82","partial","Male","100","United States of America","","C189879","WA","freqGain","Mozilla/5.0 (Windows NT 6.3; Win64; x64; rv:75.0) Gecko/20100101 Firefox/75.0","1.07","","null","","You successfully harvested honey! You earned <b>3 </b>points.","","83","null","3","77","",""
"","html-button-response","191","965463","0.0-3.0-0.83","partial","Male","100","United States of America","","C189879","WA","freqGain","Mozilla/5.0 (Windows NT 6.3; Win64; x64; rv:75.0) Gecko/20100101 Firefox/75.0","1.07","","1383","","<img src = 'img/A0-B0-L0-W1.jpg' width = '600'>","1","84","","","","",""
"","html-keyboard-response","192","967469","0.0-3.0-1.83","partial","Male","100","United States of America","","C189879","WA","freqGain","Mozilla/5.0 (Windows NT 6.3; Win64; x64; rv:75.0) Gecko/20100101 Firefox/75.0","1.07","","null","","You avoided this hive. You earned <b>0 </b>points.","","84","null","0","77","",""
"","html-button-response","193","968383","0.0-3.0-0.84","partial","Male","100","United States of America","","C189879","WA","freqGain","Mozilla/5.0 (Windows NT 6.3; Win64; x64; rv:75.0) Gecko/20100101 Firefox/75.0","1.07","","912","","<img src = 'img/A1-B1-L1-W1.jpg' width = '600'>","1","85","","","","",""
"","html-keyboard-response","194","970391","0.0-3.0-1.84","partial","Male","100","United States of America","","C189879","WA","freqGain","Mozilla/5.0 (Windows NT 6.3; Win64; x64; rv:75.0) Gecko/20100101 Firefox/75.0","1.07","","null","","You avoided this hive. You earned <b>0 </b>points.","","85","null","0","77","",""
"","html-button-response","195","971742","0.0-3.0-0.85","partial","Male","100","United States of America","","C189879","WA","freqGain","Mozilla/5.0 (Windows NT 6.3; Win64; x64; rv:75.0) Gecko/20100101 Firefox/75.0","1.07","","1350","","<img src = 'img/A0-B0-L1-W0.jpg' width = '600'>","1","86","","","","",""
"","html-keyboard-response","196","973750","0.0-3.0-1.85","partial","Male","100","United States of America","","C189879","WA","freqGain","Mozilla/5.0 (Windows NT 6.3; Win64; x64; rv:75.0) Gecko/20100101 Firefox/75.0","1.07","","null","","You avoided this hive. You earned <b>0 </b>points.","","86","null","0","77","",""
"","html-button-response","197","975083","0.0-3.0-0.86","partial","Male","100","United States of America","","C189879","WA","freqGain","Mozilla/5.0 (Windows NT 6.3; Win64; x64; rv:75.0) Gecko/20100101 Firefox/75.0","1.07","","1332","","<img src = 'img/A1-B0-L0-W0.jpg' width = '600'>","0","87","","","","",""
"","html-keyboard-response","198","977093","0.0-3.0-1.86","partial","Male","100","United States of America","","C189879","WA","freqGain","Mozilla/5.0 (Windows NT 6.3; Win64; x64; rv:75.0) Gecko/20100101 Firefox/75.0","1.07","","null","","Ouch, you were stung! You lost <b>-1 </b>point.","","87","null","-1","76","",""
"","html-button-response","199","978962","0.0-3.0-0.87","partial","Male","100","United States of America","","C189879","WA","freqGain","Mozilla/5.0 (Windows NT 6.3; Win64; x64; rv:75.0) Gecko/20100101 Firefox/75.0","1.07","","1868","","<img src = 'img/A1-B1-L0-W0.jpg' width = '600'>","1","88","","","","",""
"","html-keyboard-response","200","980969","0.0-3.0-1.87","partial","Male","100","United States of America","","C189879","WA","freqGain","Mozilla/5.0 (Windows NT 6.3; Win64; x64; rv:75.0) Gecko/20100101 Firefox/75.0","1.07","","null","","You avoided this hive. You earned <b>0 </b>points.","","88","null","0","76","",""
"","html-button-response","201","982524","0.0-3.0-0.88","partial","Male","100","United States of America","","C189879","WA","freqGain","Mozilla/5.0 (Windows NT 6.3; Win64; x64; rv:75.0) Gecko/20100101 Firefox/75.0","1.07","","1553","","<img src = 'img/A1-B1-L1-W0.jpg' width = '600'>","1","89","","","","",""
"","html-keyboard-response","202","984531","0.0-3.0-1.88","partial","Male","100","United States of America","","C189879","WA","freqGain","Mozilla/5.0 (Windows NT 6.3; Win64; x64; rv:75.0) Gecko/20100101 Firefox/75.0","1.07","","null","","You avoided this hive. You earned <b>0 </b>points.","","89","null","0","76","",""
"","html-button-response","203","986082","0.0-3.0-0.89","partial","Male","100","United States of America","","C189879","WA","freqGain","Mozilla/5.0 (Windows NT 6.3; Win64; x64; rv:75.0) Gecko/20100101 Firefox/75.0","1.07","","1549","","<img src = 'img/A0-B1-L1-W1.jpg' width = '600'>","1","90","","","","",""
"","html-keyboard-response","204","988094","0.0-3.0-1.89","partial","Male","100","United States of America","","C189879","WA","freqGain","Mozilla/5.0 (Windows NT 6.3; Win64; x64; rv:75.0) Gecko/20100101 Firefox/75.0","1.07","","null","","You avoided this hive. You earned <b>0 </b>points.","","90","null","0","76","",""
"","html-button-response","205","989509","0.0-3.0-0.90","partial","Male","100","United States of America","","C189879","WA","freqGain","Mozilla/5.0 (Windows NT 6.3; Win64; x64; rv:75.0) Gecko/20100101 Firefox/75.0","1.07","","1415","","<img src = 'img/A1-B0-L0-W1.jpg' width = '600'>","0","91","","","","",""
"","html-keyboard-response","206","991515","0.0-3.0-1.90","partial","Male","100","United States of America","","C189879","WA","freqGain","Mozilla/5.0 (Windows NT 6.3; Win64; x64; rv:75.0) Gecko/20100101 Firefox/75.0","1.07","","null","","You successfully harvested honey! You earned <b>3 </b>points.","","91","null","3","79","",""
"","html-button-response","207","993502","0.0-3.0-0.91","partial","Male","100","United States of America","","C189879","WA","freqGain","Mozilla/5.0 (Windows NT 6.3; Win64; x64; rv:75.0) Gecko/20100101 Firefox/75.0","1.07","","1986","","<img src = 'img/A0-B0-L0-W0.jpg' width = '600'>","1","92","","","","",""
"","html-keyboard-response","208","995515","0.0-3.0-1.91","partial","Male","100","United States of America","","C189879","WA","freqGain","Mozilla/5.0 (Windows NT 6.3; Win64; x64; rv:75.0) Gecko/20100101 Firefox/75.0","1.07","","null","","You avoided this hive. You earned <b>0 </b>points.","","92","null","0","79","",""
"","html-button-response","209","998450","0.0-3.0-0.92","partial","Male","100","United States of America","","C189879","WA","freqGain","Mozilla/5.0 (Windows NT 6.3; Win64; x64; rv:75.0) Gecko/20100101 Firefox/75.0","1.07","","2932","","<img src = 'img/A1-B1-L0-W1.jpg' width = '600'>","0","93","","","","",""
"","html-keyboard-response","210","1000452","0.0-3.0-1.92","partial","Male","100","United States of America","","C189879","WA","freqGain","Mozilla/5.0 (Windows NT 6.3; Win64; x64; rv:75.0) Gecko/20100101 Firefox/75.0","1.07","","null","","You successfully harvested honey! You earned <b>3 </b>points.","","93","null","3","82","",""
"","html-button-response","211","1001809","0.0-3.0-0.93","partial","Male","100","United States of America","","C189879","WA","freqGain","Mozilla/5.0 (Windows NT 6.3; Win64; x64; rv:75.0) Gecko/20100101 Firefox/75.0","1.07","","1354","","<img src = 'img/A0-B1-L0-W0.jpg' width = '600'>","1","94","","","","",""
"","html-keyboard-response","212","1003812","0.0-3.0-1.93","partial","Male","100","United States of America","","C189879","WA","freqGain","Mozilla/5.0 (Windows NT 6.3; Win64; x64; rv:75.0) Gecko/20100101 Firefox/75.0","1.07","","null","","You avoided this hive. You earned <b>0 </b>points.","","94","null","0","82","",""
"","html-button-response","213","1004841","0.0-3.0-0.94","partial","Male","100","United States of America","","C189879","WA","freqGain","Mozilla/5.0 (Windows NT 6.3; Win64; x64; rv:75.0) Gecko/20100101 Firefox/75.0","1.07","","1028","","<img src = 'img/A0-B1-L0-W1.jpg' width = '600'>","1","95","","","","",""
"","html-keyboard-response","214","1006843","0.0-3.0-1.94","partial","Male","100","United States of America","","C189879","WA","freqGain","Mozilla/5.0 (Windows NT 6.3; Win64; x64; rv:75.0) Gecko/20100101 Firefox/75.0","1.07","","null","","You avoided this hive. You earned <b>0 </b>points.","","95","null","0","82","",""
"","html-button-response","215","1007836","0.0-3.0-0.95","partial","Male","100","United States of America","","C189879","WA","freqGain","Mozilla/5.0 (Windows NT 6.3; Win64; x64; rv:75.0) Gecko/20100101 Firefox/75.0","1.07","","992","","<img src = 'img/A0-B0-L1-W1.jpg' width = '600'>","1","96","","","","",""
"","html-keyboard-response","216","1009842","0.0-3.0-1.95","partial","Male","100","United States of America","","C189879","WA","freqGain","Mozilla/5.0 (Windows NT 6.3; Win64; x64; rv:75.0) Gecko/20100101 Firefox/75.0","1.07","","null","","You avoided this hive. You earned <b>0 </b>points.","","96","null","0","82","",""
"","html-button-response","217","1010820","0.0-3.0-0.96","partial","Male","100","United States of America","","C189879","WA","freqGain","Mozilla/5.0 (Windows NT 6.3; Win64; x64; rv:75.0) Gecko/20100101 Firefox/75.0","1.07","","976","","<img src = 'img/A0-B1-L0-W1.jpg' width = '600'>","1","97","","","","",""
"","html-keyboard-response","218","1012827","0.0-3.0-1.96","partial","Male","100","United States of America","","C189879","WA","freqGain","Mozilla/5.0 (Windows NT 6.3; Win64; x64; rv:75.0) Gecko/20100101 Firefox/75.0","1.07","","null","","You avoided this hive. You earned <b>0 </b>points.","","97","null","0","82","",""
"","html-button-response","219","1014780","0.0-3.0-0.97","partial","Male","100","United States of America","","C189879","WA","freqGain","Mozilla/5.0 (Windows NT 6.3; Win64; x64; rv:75.0) Gecko/20100101 Firefox/75.0","1.07","","1952","","<img src = 'img/A1-B1-L0-W1.jpg' width = '600'>","0","98","","","","",""
"","html-keyboard-response","220","1016796","0.0-3.0-1.97","partial","Male","100","United States of America","","C189879","WA","freqGain","Mozilla/5.0 (Windows NT 6.3; Win64; x64; rv:75.0) Gecko/20100101 Firefox/75.0","1.07","","null","","You successfully harvested honey! You earned <b>3 </b>points.","","98","null","3","85","",""
"","html-button-response","221","1018160","0.0-3.0-0.98","partial","Male","100","United States of America","","C189879","WA","freqGain","Mozilla/5.0 (Windows NT 6.3; Win64; x64; rv:75.0) Gecko/20100101 Firefox/75.0","1.07","","1363","","<img src = 'img/A1-B1-L1-W0.jpg' width = '600'>","1","99","","","","",""
"","html-keyboard-response","222","1020170","0.0-3.0-1.98","partial","Male","100","United States of America","","C189879","WA","freqGain","Mozilla/5.0 (Windows NT 6.3; Win64; x64; rv:75.0) Gecko/20100101 Firefox/75.0","1.07","","null","","You avoided this hive. You earned <b>0 </b>points.","","99","null","0","85","",""
"","html-button-response","223","1021060","0.0-3.0-0.99","partial","Male","100","United States of America","","C189879","WA","freqGain","Mozilla/5.0 (Windows NT 6.3; Win64; x64; rv:75.0) Gecko/20100101 Firefox/75.0","1.07","","889","","<img src = 'img/A1-B0-L1-W0.jpg' width = '600'>","1","100","","","","",""
"","html-keyboard-response","224","1023077","0.0-3.0-1.99","partial","Male","100","United States of America","","C189879","WA","freqGain","Mozilla/5.0 (Windows NT 6.3; Win64; x64; rv:75.0) Gecko/20100101 Firefox/75.0","1.07","","null","","You avoided this hive. You earned <b>0 </b>points.","","100","null","0","85","",""
"","html-button-response","225","1024168","0.0-3.0-0.100","partial","Male","100","United States of America","","C189879","WA","freqGain","Mozilla/5.0 (Windows NT 6.3; Win64; x64; rv:75.0) Gecko/20100101 Firefox/75.0","1.07","","1090","","<img src = 'img/A0-B1-L1-W0.jpg' width = '600'>","1","101","","","","",""
"","html-keyboard-response","226","1026170","0.0-3.0-1.100","partial","Male","100","United States of America","","C189879","WA","freqGain","Mozilla/5.0 (Windows NT 6.3; Win64; x64; rv:75.0) Gecko/20100101 Firefox/75.0","1.07","","null","","You avoided this hive. You earned <b>0 </b>points.","","101","null","0","85","",""
"","html-button-response","227","1028220","0.0-3.0-0.101","partial","Male","100","United States of America","","C189879","WA","freqGain","Mozilla/5.0 (Windows NT 6.3; Win64; x64; rv:75.0) Gecko/20100101 Firefox/75.0","1.07","","2049","","<img src = 'img/A1-B0-L1-W1.jpg' width = '600'>","0","102","","","","",""
"","html-keyboard-response","228","1030233","0.0-3.0-1.101","partial","Male","100","United States of America","","C189879","WA","freqGain","Mozilla/5.0 (Windows NT 6.3; Win64; x64; rv:75.0) Gecko/20100101 Firefox/75.0","1.07","","null","","You successfully harvested honey! You earned <b>3 </b>points.","","102","null","3","88","",""
"","html-button-response","229","1033159","0.0-3.0-0.102","partial","Male","100","United States of America","","C189879","WA","freqGain","Mozilla/5.0 (Windows NT 6.3; Win64; x64; rv:75.0) Gecko/20100101 Firefox/75.0","1.07","","2926","","<img src = 'img/A0-B0-L0-W1.jpg' width = '600'>","0","103","","","","",""
"","html-keyboard-response","230","1035170","0.0-3.0-1.102","partial","Male","100","United States of America","","C189879","WA","freqGain","Mozilla/5.0 (Windows NT 6.3; Win64; x64; rv:75.0) Gecko/20100101 Firefox/75.0","1.07","","null","","Ouch, you were stung! You lost <b>-1 </b>point.","","103","null","-1","87","",""
"","html-button-response","231","1036599","0.0-3.0-0.103","partial","Male","100","United States of America","","C189879","WA","freqGain","Mozilla/5.0 (Windows NT 6.3; Win64; x64; rv:75.0) Gecko/20100101 Firefox/75.0","1.07","","1428","","<img src = 'img/A0-B0-L0-W0.jpg' width = '600'>","1","104","","","","",""
"","html-keyboard-response","232","1038607","0.0-3.0-1.103","partial","Male","100","United States of America","","C189879","WA","freqGain","Mozilla/5.0 (Windows NT 6.3; Win64; x64; rv:75.0) Gecko/20100101 Firefox/75.0","1.07","","null","","You avoided this hive. You earned <b>0 </b>points.","","104","null","0","87","",""
"","html-button-response","233","1039719","0.0-3.0-0.104","partial","Male","100","United States of America","","C189879","WA","freqGain","Mozilla/5.0 (Windows NT 6.3; Win64; x64; rv:75.0) Gecko/20100101 Firefox/75.0","1.07","","1110","","<img src = 'img/A1-B1-L1-W1.jpg' width = '600'>","1","105","","","","",""
"","html-keyboard-response","234","1041731","0.0-3.0-1.104","partial","Male","100","United States of America","","C189879","WA","freqGain","Mozilla/5.0 (Windows NT 6.3; Win64; x64; rv:75.0) Gecko/20100101 Firefox/75.0","1.07","","null","","You avoided this hive. You earned <b>0 </b>points.","","105","null","0","87","",""
"","html-button-response","235","1043506","0.0-3.0-0.105","partial","Male","100","United States of America","","C189879","WA","freqGain","Mozilla/5.0 (Windows NT 6.3; Win64; x64; rv:75.0) Gecko/20100101 Firefox/75.0","1.07","","1774","","<img src = 'img/A1-B0-L0-W1.jpg' width = '600'>","0","106","","","","",""
"","html-keyboard-response","236","1045513","0.0-3.0-1.105","partial","Male","100","United States of America","","C189879","WA","freqGain","Mozilla/5.0 (Windows NT 6.3; Win64; x64; rv:75.0) Gecko/20100101 Firefox/75.0","1.07","","null","","You successfully harvested honey! You earned <b>3 </b>points.","","106","null","3","90","",""
"","html-button-response","237","1046838","0.0-3.0-0.106","partial","Male","100","United States of America","","C189879","WA","freqGain","Mozilla/5.0 (Windows NT 6.3; Win64; x64; rv:75.0) Gecko/20100101 Firefox/75.0","1.07","","1324","","<img src = 'img/A1-B1-L0-W0.jpg' width = '600'>","1","107","","","","",""
"","html-keyboard-response","238","1048841","0.0-3.0-1.106","partial","Male","100","United States of America","","C189879","WA","freqGain","Mozilla/5.0 (Windows NT 6.3; Win64; x64; rv:75.0) Gecko/20100101 Firefox/75.0","1.07","","null","","You avoided this hive. You earned <b>0 </b>points.","","107","null","0","90","",""
"","html-button-response","239","1050119","0.0-3.0-0.107","partial","Male","100","United States of America","","C189879","WA","freqGain","Mozilla/5.0 (Windows NT 6.3; Win64; x64; rv:75.0) Gecko/20100101 Firefox/75.0","1.07","","1276","","<img src = 'img/A0-B0-L1-W1.jpg' width = '600'>","1","108","","","","",""
"","html-keyboard-response","240","1052122","0.0-3.0-1.107","partial","Male","100","United States of America","","C189879","WA","freqGain","Mozilla/5.0 (Windows NT 6.3; Win64; x64; rv:75.0) Gecko/20100101 Firefox/75.0","1.07","","null","","You avoided this hive. You earned <b>0 </b>points.","","108","null","0","90","",""
"","html-button-response","241","1053685","0.0-3.0-0.108","partial","Male","100","United States of America","","C189879","WA","freqGain","Mozilla/5.0 (Windows NT 6.3; Win64; x64; rv:75.0) Gecko/20100101 Firefox/75.0","1.07","","1562","","<img src = 'img/A1-B0-L0-W0.jpg' width = '600'>","1","109","","","","",""
"","html-keyboard-response","242","1055700","0.0-3.0-1.108","partial","Male","100","United States of America","","C189879","WA","freqGain","Mozilla/5.0 (Windows NT 6.3; Win64; x64; rv:75.0) Gecko/20100101 Firefox/75.0","1.07","","null","","You avoided this hive. You earned <b>0 </b>points.","","109","null","0","90","",""
"","html-button-response","243","1057470","0.0-3.0-0.109","partial","Male","100","United States of America","","C189879","WA","freqGain","Mozilla/5.0 (Windows NT 6.3; Win64; x64; rv:75.0) Gecko/20100101 Firefox/75.0","1.07","","1769","","<img src = 'img/A0-B0-L1-W0.jpg' width = '600'>","1","110","","","","",""
"","html-keyboard-response","244","1059481","0.0-3.0-1.109","partial","Male","100","United States of America","","C189879","WA","freqGain","Mozilla/5.0 (Windows NT 6.3; Win64; x64; rv:75.0) Gecko/20100101 Firefox/75.0","1.07","","null","","You avoided this hive. You earned <b>0 </b>points.","","110","null","0","90","",""
"","html-button-response","245","1060728","0.0-3.0-0.110","partial","Male","100","United States of America","","C189879","WA","freqGain","Mozilla/5.0 (Windows NT 6.3; Win64; x64; rv:75.0) Gecko/20100101 Firefox/75.0","1.07","","1245","","<img src = 'img/A0-B1-L0-W0.jpg' width = '600'>","1","111","","","","",""
"","html-keyboard-response","246","1062731","0.0-3.0-1.110","partial","Male","100","United States of America","","C189879","WA","freqGain","Mozilla/5.0 (Windows NT 6.3; Win64; x64; rv:75.0) Gecko/20100101 Firefox/75.0","1.07","","null","","You avoided this hive. You earned <b>0 </b>points.","","111","null","0","90","",""
"","html-button-response","247","1064337","0.0-3.0-0.111","partial","Male","100","United States of America","","C189879","WA","freqGain","Mozilla/5.0 (Windows NT 6.3; Win64; x64; rv:75.0) Gecko/20100101 Firefox/75.0","1.07","","1605","","<img src = 'img/A0-B1-L1-W1.jpg' width = '600'>","1","112","","","","",""
"","html-keyboard-response","248","1066341","0.0-3.0-1.111","partial","Male","100","United States of America","","C189879","WA","freqGain","Mozilla/5.0 (Windows NT 6.3; Win64; x64; rv:75.0) Gecko/20100101 Firefox/75.0","1.07","","null","","You avoided this hive. You earned <b>0 </b>points.","","112","null","0","90","",""
"","html-button-response","249","1068237","0.0-3.0-0.112","partial","Male","100","United States of America","","C189879","WA","freqGain","Mozilla/5.0 (Windows NT 6.3; Win64; x64; rv:75.0) Gecko/20100101 Firefox/75.0","1.07","","1896","","<img src = 'img/A0-B0-L0-W1.jpg' width = '600'>","1","113","","","","",""
"","html-keyboard-response","250","1070246","0.0-3.0-1.112","partial","Male","100","United States of America","","C189879","WA","freqGain","Mozilla/5.0 (Windows NT 6.3; Win64; x64; rv:75.0) Gecko/20100101 Firefox/75.0","1.07","","null","","You avoided this hive. You earned <b>0 </b>points.","","113","null","0","90","",""
"","html-button-response","251","1074245","0.0-3.0-0.113","partial","Male","100","United States of America","","C189879","WA","freqGain","Mozilla/5.0 (Windows NT 6.3; Win64; x64; rv:75.0) Gecko/20100101 Firefox/75.0","1.07","","3998","","<img src = 'img/A0-B1-L1-W0.jpg' width = '600'>","1","114","","","","",""
"","html-keyboard-response","252","1076246","0.0-3.0-1.113","partial","Male","100","United States of America","","C189879","WA","freqGain","Mozilla/5.0 (Windows NT 6.3; Win64; x64; rv:75.0) Gecko/20100101 Firefox/75.0","1.07","","null","","You avoided this hive. You earned <b>0 </b>points.","","114","null","0","90","",""
"","html-button-response","253","1077656","0.0-3.0-0.114","partial","Male","100","United States of America","","C189879","WA","freqGain","Mozilla/5.0 (Windows NT 6.3; Win64; x64; rv:75.0) Gecko/20100101 Firefox/75.0","1.07","","1409","","<img src = 'img/A1-B0-L1-W1.jpg' width = '600'>","0","115","","","","",""
"","html-keyboard-response","254","1079668","0.0-3.0-1.114","partial","Male","100","United States of America","","C189879","WA","freqGain","Mozilla/5.0 (Windows NT 6.3; Win64; x64; rv:75.0) Gecko/20100101 Firefox/75.0","1.07","","null","","You successfully harvested honey! You earned <b>3 </b>points.","","115","null","3","93","",""
"","html-button-response","255","1081456","0.0-3.0-0.115","partial","Male","100","United States of America","","C189879","WA","freqGain","Mozilla/5.0 (Windows NT 6.3; Win64; x64; rv:75.0) Gecko/20100101 Firefox/75.0","1.07","","1787","","<img src = 'img/A0-B0-L1-W1.jpg' width = '600'>","1","116","","","","",""
"","html-keyboard-response","256","1083464","0.0-3.0-1.115","partial","Male","100","United States of America","","C189879","WA","freqGain","Mozilla/5.0 (Windows NT 6.3; Win64; x64; rv:75.0) Gecko/20100101 Firefox/75.0","1.07","","null","","You avoided this hive. You earned <b>0 </b>points.","","116","null","0","93","",""
"","html-button-response","257","1098745","0.0-3.0-0.116","partial","Male","100","United States of America","","C189879","WA","freqGain","Mozilla/5.0 (Windows NT 6.3; Win64; x64; rv:75.0) Gecko/20100101 Firefox/75.0","1.07","","15280","","<img src = 'img/A1-B1-L1-W0.jpg' width = '600'>","0","117","","","","",""
"","html-keyboard-response","258","1100761","0.0-3.0-1.116","partial","Male","100","United States of America","","C189879","WA","freqGain","Mozilla/5.0 (Windows NT 6.3; Win64; x64; rv:75.0) Gecko/20100101 Firefox/75.0","1.07","","null","","Ouch, you were stung! You lost <b>-1 </b>point.","","117","null","-1","92","",""
"","html-button-response","259","1102175","0.0-3.0-0.117","partial","Male","100","United States of America","","C189879","WA","freqGain","Mozilla/5.0 (Windows NT 6.3; Win64; x64; rv:75.0) Gecko/20100101 Firefox/75.0","1.07","","1413","","<img src = 'img/A1-B1-L1-W1.jpg' width = '600'>","1","118","","","","",""
"","html-keyboard-response","260","1104183","0.0-3.0-1.117","partial","Male","100","United States of America","","C189879","WA","freqGain","Mozilla/5.0 (Windows NT 6.3; Win64; x64; rv:75.0) Gecko/20100101 Firefox/75.0","1.07","","null","","You avoided this hive. You earned <b>0 </b>points.","","118","null","0","92","",""
"","html-button-response","261","1105695","0.0-3.0-0.118","partial","Male","100","United States of America","","C189879","WA","freqGain","Mozilla/5.0 (Windows NT 6.3; Win64; x64; rv:75.0) Gecko/20100101 Firefox/75.0","1.07","","1512","","<img src = 'img/A1-B1-L0-W0.jpg' width = '600'>","1","119","","","","",""
"","html-keyboard-response","262","1107698","0.0-3.0-1.118","partial","Male","100","United States of America","","C189879","WA","freqGain","Mozilla/5.0 (Windows NT 6.3; Win64; x64; rv:75.0) Gecko/20100101 Firefox/75.0","1.07","","null","","You avoided this hive. You earned <b>0 </b>points.","","119","null","0","92","",""
"","html-button-response","263","1109382","0.0-3.0-0.119","partial","Male","100","United States of America","","C189879","WA","freqGain","Mozilla/5.0 (Windows NT 6.3; Win64; x64; rv:75.0) Gecko/20100101 Firefox/75.0","1.07","","1683","","<img src = 'img/A1-B0-L1-W0.jpg' width = '600'>","1","120","","","","",""
"","html-keyboard-response","264","1111386","0.0-3.0-1.119","partial","Male","100","United States of America","","C189879","WA","freqGain","Mozilla/5.0 (Windows NT 6.3; Win64; x64; rv:75.0) Gecko/20100101 Firefox/75.0","1.07","","null","","You avoided this hive. You earned <b>0 </b>points.","","120","null","0","92","",""
"","html-button-response","265","1113215","0.0-3.0-0.120","partial","Male","100","United States of America","","C189879","WA","freqGain","Mozilla/5.0 (Windows NT 6.3; Win64; x64; rv:75.0) Gecko/20100101 Firefox/75.0","1.07","","1828","","<img src = 'img/A1-B0-L0-W1.jpg' width = '600'>","0","121","","","","",""
"","html-keyboard-response","266","1115229","0.0-3.0-1.120","partial","Male","100","United States of America","","C189879","WA","freqGain","Mozilla/5.0 (Windows NT 6.3; Win64; x64; rv:75.0) Gecko/20100101 Firefox/75.0","1.07","","null","","You successfully harvested honey! You earned <b>3 </b>points.","","121","null","3","95","",""
"","html-button-response","267","1116754","0.0-3.0-0.121","partial","Male","100","United States of America","","C189879","WA","freqGain","Mozilla/5.0 (Windows NT 6.3; Win64; x64; rv:75.0) Gecko/20100101 Firefox/75.0","1.07","","1524","","<img src = 'img/A0-B0-L0-W0.jpg' width = '600'>","1","122","","","","",""
"","html-keyboard-response","268","1118760","0.0-3.0-1.121","partial","Male","100","United States of America","","C189879","WA","freqGain","Mozilla/5.0 (Windows NT 6.3; Win64; x64; rv:75.0) Gecko/20100101 Firefox/75.0","1.07","","null","","You avoided this hive. You earned <b>0 </b>points.","","122","null","0","95","",""
"","html-button-response","269","1120814","0.0-3.0-0.122","partial","Male","100","United States of America","","C189879","WA","freqGain","Mozilla/5.0 (Windows NT 6.3; Win64; x64; rv:75.0) Gecko/20100101 Firefox/75.0","1.07","","2053","","<img src = 'img/A1-B1-L0-W1.jpg' width = '600'>","0","123","","","","",""
"","html-keyboard-response","270","1122822","0.0-3.0-1.122","partial","Male","100","United States of America","","C189879","WA","freqGain","Mozilla/5.0 (Windows NT 6.3; Win64; x64; rv:75.0) Gecko/20100101 Firefox/75.0","1.07","","null","","You successfully harvested honey! You earned <b>3 </b>points.","","123","null","3","98","",""
"","html-button-response","271","1124354","0.0-3.0-0.123","partial","Male","100","United States of America","","C189879","WA","freqGain","Mozilla/5.0 (Windows NT 6.3; Win64; x64; rv:75.0) Gecko/20100101 Firefox/75.0","1.07","","1530","","<img src = 'img/A0-B1-L0-W0.jpg' width = '600'>","1","124","","","","",""
"","html-keyboard-response","272","1126369","0.0-3.0-1.123","partial","Male","100","United States of America","","C189879","WA","freqGain","Mozilla/5.0 (Windows NT 6.3; Win64; x64; rv:75.0) Gecko/20100101 Firefox/75.0","1.07","","null","","You avoided this hive. You earned <b>0 </b>points.","","124","null","0","98","",""
"","html-button-response","273","1127853","0.0-3.0-0.124","partial","Male","100","United States of America","","C189879","WA","freqGain","Mozilla/5.0 (Windows NT 6.3; Win64; x64; rv:75.0) Gecko/20100101 Firefox/75.0","1.07","","1483","","<img src = 'img/A0-B1-L1-W1.jpg' width = '600'>","1","125","","","","",""
"","html-keyboard-response","274","1129869","0.0-3.0-1.124","partial","Male","100","United States of America","","C189879","WA","freqGain","Mozilla/5.0 (Windows NT 6.3; Win64; x64; rv:75.0) Gecko/20100101 Firefox/75.0","1.07","","null","","You avoided this hive. You earned <b>0 </b>points.","","125","null","0","98","",""
"","html-button-response","275","1131393","0.0-3.0-0.125","partial","Male","100","United States of America","","C189879","WA","freqGain","Mozilla/5.0 (Windows NT 6.3; Win64; x64; rv:75.0) Gecko/20100101 Firefox/75.0","1.07","","1524","","<img src = 'img/A0-B1-L0-W1.jpg' width = '600'>","1","126","","","","",""
"","html-keyboard-response","276","1133401","0.0-3.0-1.125","partial","Male","100","United States of America","","C189879","WA","freqGain","Mozilla/5.0 (Windows NT 6.3; Win64; x64; rv:75.0) Gecko/20100101 Firefox/75.0","1.07","","null","","You avoided this hive. You earned <b>0 </b>points.","","126","null","0","98","",""
"","html-button-response","277","1135112","0.0-3.0-0.126","partial","Male","100","United States of America","","C189879","WA","freqGain","Mozilla/5.0 (Windows NT 6.3; Win64; x64; rv:75.0) Gecko/20100101 Firefox/75.0","1.07","","1711","","<img src = 'img/A1-B0-L0-W0.jpg' width = '600'>","1","127","","","","",""
"","html-keyboard-response","278","1137119","0.0-3.0-1.126","partial","Male","100","United States of America","","C189879","WA","freqGain","Mozilla/5.0 (Windows NT 6.3; Win64; x64; rv:75.0) Gecko/20100101 Firefox/75.0","1.07","","null","","You avoided this hive. You earned <b>0 </b>points.","","127","null","0","98","",""
"","html-button-response","279","1139033","0.0-3.0-0.127","partial","Male","100","United States of America","","C189879","WA","freqGain","Mozilla/5.0 (Windows NT 6.3; Win64; x64; rv:75.0) Gecko/20100101 Firefox/75.0","1.07","","1912","","<img src = 'img/A0-B0-L1-W0.jpg' width = '600'>","1","128","","","","",""
"","html-keyboard-response","280","1141041","0.0-3.0-1.127","partial","Male","100","United States of America","","C189879","WA","freqGain","Mozilla/5.0 (Windows NT 6.3; Win64; x64; rv:75.0) Gecko/20100101 Firefox/75.0","1.07","","null","","You avoided this hive. You earned <b>0 </b>points.","","128","null","0","98","",""
"","external-html","281","1158492","0.0-4.0","partial","Male","100","United States of America","","C189879","WA","freqGain","Mozilla/5.0 (Windows NT 6.3; Win64; x64; rv:75.0) Gecko/20100101 Firefox/75.0","1.07","","16608","","","","","","","","./pages/testinstr-fl.html",""
"","html-button-response","282","1161147","0.0-5.0-0.0","partial","Male","100","United States of America","","C189879","WA","freqGain","Mozilla/5.0 (Windows NT 6.3; Win64; x64; rv:75.0) Gecko/20100101 Firefox/75.0","1.07","","2653","","<img src = 'img/A1-B1-L1-W0.jpg' width = '600'>","0","","","","","","1"
"","html-keyboard-response","283","1162555","0.0-5.0-1.0","partial","Male","100","United States of America","","C189879","WA","freqGain","Mozilla/5.0 (Windows NT 6.3; Win64; x64; rv:75.0) Gecko/20100101 Firefox/75.0","1.07","","null","","","","","null","-1","97","","1"
"","html-button-response","284","1163767","0.0-5.0-0.1","partial","Male","100","United States of America","","C189879","WA","freqGain","Mozilla/5.0 (Windows NT 6.3; Win64; x64; rv:75.0) Gecko/20100101 Firefox/75.0","1.07","","1211","","<img src = 'img/A1-B0-L0-W0.jpg' width = '600'>","0","","","","","","2"
"","html-keyboard-response","285","1165180","0.0-5.0-1.1","partial","Male","100","United States of America","","C189879","WA","freqGain","Mozilla/5.0 (Windows NT 6.3; Win64; x64; rv:75.0) Gecko/20100101 Firefox/75.0","1.07","","null","","","","","null","-1","96","","2"
"","html-button-response","286","1166171","0.0-5.0-0.2","partial","Male","100","United States of America","","C189879","WA","freqGain","Mozilla/5.0 (Windows NT 6.3; Win64; x64; rv:75.0) Gecko/20100101 Firefox/75.0","1.07","","990","","<img src = 'img/A0-B1-L1-W1.jpg' width = '600'>","0","","","","","","3"
"","html-keyboard-response","287","1167586","0.0-5.0-1.2","partial","Male","100","United States of America","","C189879","WA","freqGain","Mozilla/5.0 (Windows NT 6.3; Win64; x64; rv:75.0) Gecko/20100101 Firefox/75.0","1.07","","null","","","","","null","-1","95","","3"
"","html-button-response","288","1168479","0.0-5.0-0.3","partial","Male","100","United States of America","","C189879","WA","freqGain","Mozilla/5.0 (Windows NT 6.3; Win64; x64; rv:75.0) Gecko/20100101 Firefox/75.0","1.07","","891","","<img src = 'img/A0-B1-L1-W0.jpg' width = '600'>","0","","","","","","4"
"","html-keyboard-response","289","1169883","0.0-5.0-1.3","partial","Male","100","United States of America","","C189879","WA","freqGain","Mozilla/5.0 (Windows NT 6.3; Win64; x64; rv:75.0) Gecko/20100101 Firefox/75.0","1.07","","null","","","","","null","-1","94","","4"
"","html-button-response","290","1170711","0.0-5.0-0.4","partial","Male","100","United States of America","","C189879","WA","freqGain","Mozilla/5.0 (Windows NT 6.3; Win64; x64; rv:75.0) Gecko/20100101 Firefox/75.0","1.07","","826","","<img src = 'img/A1-B0-L0-W1.jpg' width = '600'>","0","","","","","","5"
"","html-keyboard-response","291","1172117","0.0-5.0-1.4","partial","Male","100","United States of America","","C189879","WA","freqGain","Mozilla/5.0 (Windows NT 6.3; Win64; x64; rv:75.0) Gecko/20100101 Firefox/75.0","1.07","","null","","","","","null","3","97","","5"
"","html-button-response","292","1173590","0.0-5.0-0.5","partial","Male","100","United States of America","","C189879","WA","freqGain","Mozilla/5.0 (Windows NT 6.3; Win64; x64; rv:75.0) Gecko/20100101 Firefox/75.0","1.07","","1472","","<img src = 'img/A1-B1-L0-W0.jpg' width = '600'>","1","","","","","","6"
"","html-keyboard-response","293","1174992","0.0-5.0-1.5","partial","Male","100","United States of America","","C189879","WA","freqGain","Mozilla/5.0 (Windows NT 6.3; Win64; x64; rv:75.0) Gecko/20100101 Firefox/75.0","1.07","","null","","","","","null","0","97","","6"
"","html-button-response","294","1176850","0.0-5.0-0.6","partial","Male","100","United States of America","","C189879","WA","freqGain","Mozilla/5.0 (Windows NT 6.3; Win64; x64; rv:75.0) Gecko/20100101 Firefox/75.0","1.07","","1857","","<img src = 'img/A1-B0-L1-W0.jpg' width = '600'>","1","","","","","","7"
"","html-keyboard-response","295","1178258","0.0-5.0-1.6","partial","Male","100","United States of America","","C189879","WA","freqGain","Mozilla/5.0 (Windows NT 6.3; Win64; x64; rv:75.0) Gecko/20100101 Firefox/75.0","1.07","","null","","","","","null","0","97","","7"
"","html-button-response","296","1180331","0.0-5.0-0.7","partial","Male","100","United States of America","","C189879","WA","freqGain","Mozilla/5.0 (Windows NT 6.3; Win64; x64; rv:75.0) Gecko/20100101 Firefox/75.0","1.07","","2073","","<img src = 'img/A1-B1-L1-W1.jpg' width = '600'>","0","","","","","","8"
"","html-keyboard-response","297","1181742","0.0-5.0-1.7","partial","Male","100","United States of America","","C189879","WA","freqGain","Mozilla/5.0 (Windows NT 6.3; Win64; x64; rv:75.0) Gecko/20100101 Firefox/75.0","1.07","","null","","","","","null","3","100","","8"
"","html-button-response","298","1183070","0.0-5.0-0.8","partial","Male","100","United States of America","","C189879","WA","freqGain","Mozilla/5.0 (Windows NT 6.3; Win64; x64; rv:75.0) Gecko/20100101 Firefox/75.0","1.07","","1326","","<img src = 'img/A1-B1-L0-W1.jpg' width = '600'>","0","","","","","","9"
"","html-keyboard-response","299","1184476","0.0-5.0-1.8","partial","Male","100","United States of America","","C189879","WA","freqGain","Mozilla/5.0 (Windows NT 6.3; Win64; x64; rv:75.0) Gecko/20100101 Firefox/75.0","1.07","","null","","","","","null","3","103","","9"
"","html-button-response","300","1185711","0.0-5.0-0.9","partial","Male","100","United States of America","","C189879","WA","freqGain","Mozilla/5.0 (Windows NT 6.3; Win64; x64; rv:75.0) Gecko/20100101 Firefox/75.0","1.07","","1233","","<img src = 'img/A0-B1-L0-W0.jpg' width = '600'>","1","","","","","","10"
"","html-keyboard-response","301","1187117","0.0-5.0-1.9","partial","Male","100","United States of America","","C189879","WA","freqGain","Mozilla/5.0 (Windows NT 6.3; Win64; x64; rv:75.0) Gecko/20100101 Firefox/75.0","1.07","","null","","","","","null","0","103","","10"
"","html-button-response","302","1187930","0.0-5.0-0.10","partial","Male","100","United States of America","","C189879","WA","freqGain","Mozilla/5.0 (Windows NT 6.3; Win64; x64; rv:75.0) Gecko/20100101 Firefox/75.0","1.07","","812","","<img src = 'img/A0-B1-L0-W1.jpg' width = '600'>","0","","","","","","11"
"","html-keyboard-response","303","1189336","0.0-5.0-1.10","partial","Male","100","United States of America","","C189879","WA","freqGain","Mozilla/5.0 (Windows NT 6.3; Win64; x64; rv:75.0) Gecko/20100101 Firefox/75.0","1.07","","null","","","","","null","-1","102","","11"
"","html-button-response","304","1190245","0.0-5.0-0.11","partial","Male","100","United States of America","","C189879","WA","freqGain","Mozilla/5.0 (Windows NT 6.3; Win64; x64; rv:75.0) Gecko/20100101 Firefox/75.0","1.07","","909","","<img src = 'img/A0-B0-L1-W1.jpg' width = '600'>","1","","","","","","12"
"","html-keyboard-response","305","1191648","0.0-5.0-1.11","partial","Male","100","United States of America","","C189879","WA","freqGain","Mozilla/5.0 (Windows NT 6.3; Win64; x64; rv:75.0) Gecko/20100101 Firefox/75.0","1.07","","null","","","","","null","0","102","","12"
"","html-button-response","306","1192498","0.0-5.0-0.12","partial","Male","100","United States of America","","C189879","WA","freqGain","Mozilla/5.0 (Windows NT 6.3; Win64; x64; rv:75.0) Gecko/20100101 Firefox/75.0","1.07","","849","","<img src = 'img/A0-B0-L0-W0.jpg' width = '600'>","1","","","","","","13"
"","html-keyboard-response","307","1193914","0.0-5.0-1.12","partial","Male","100","United States of America","","C189879","WA","freqGain","Mozilla/5.0 (Windows NT 6.3; Win64; x64; rv:75.0) Gecko/20100101 Firefox/75.0","1.07","","null","","","","","null","0","102","","13"
"","html-button-response","308","1194738","0.0-5.0-0.13","partial","Male","100","United States of America","","C189879","WA","freqGain","Mozilla/5.0 (Windows NT 6.3; Win64; x64; rv:75.0) Gecko/20100101 Firefox/75.0","1.07","","822","","<img src = 'img/A0-B0-L1-W0.jpg' width = '600'>","1","","","","","","14"
"","html-keyboard-response","309","1196147","0.0-5.0-1.13","partial","Male","100","United States of America","","C189879","WA","freqGain","Mozilla/5.0 (Windows NT 6.3; Win64; x64; rv:75.0) Gecko/20100101 Firefox/75.0","1.07","","null","","","","","null","0","102","","14"
"","html-button-response","310","1197229","0.0-5.0-0.14","partial","Male","100","United States of America","","C189879","WA","freqGain","Mozilla/5.0 (Windows NT 6.3; Win64; x64; rv:75.0) Gecko/20100101 Firefox/75.0","1.07","","1081","","<img src = 'img/A1-B0-L1-W1.jpg' width = '600'>","1","","","","","","15"
"","html-keyboard-response","311","1198632","0.0-5.0-1.14","partial","Male","100","United States of America","","C189879","WA","freqGain","Mozilla/5.0 (Windows NT 6.3; Win64; x64; rv:75.0) Gecko/20100101 Firefox/75.0","1.07","","null","","","","","null","0","102","","15"
"","html-button-response","312","1199929","0.0-5.0-0.15","partial","Male","100","United States of America","","C189879","WA","freqGain","Mozilla/5.0 (Windows NT 6.3; Win64; x64; rv:75.0) Gecko/20100101 Firefox/75.0","1.07","","1297","","<img src = 'img/A0-B0-L0-W1.jpg' width = '600'>","1","","","","","","16"
"","html-keyboard-response","313","1201335","0.0-5.0-1.15","partial","Male","100","United States of America","","C189879","WA","freqGain","Mozilla/5.0 (Windows NT 6.3; Win64; x64; rv:75.0) Gecko/20100101 Firefox/75.0","1.07","","null","","","","","null","0","102","","16"
