"success","trial_type","trial_index","time_elapsed","internal_node_id","feedback","gender","age","country","email","turkcode","relevantDim","condition","browserinfo","bonus","view_history","rt","responses","stimulus","button_pressed","i","key_press","earnedThis","earnedCumulative","url","k"
"true","fullscreen","0","1821","0.0-0.0","partial","Male","25","United States of America","","C482806","WA","freqGain","Mozilla/5.0 (Windows NT 6.1; Win64; x64) AppleWebKit/537.36 (KHTML, like Gecko) Chrome/79.0.3945.130 Safari/537.36","0.5","","","","","","","","","","",""
"","instructions","1","9835","0.0-1.0-0.0","partial","Male","25","United States of America","","C482806","WA","freqGain","Mozilla/5.0 (Windows NT 6.1; Win64; x64) AppleWebKit/537.36 (KHTML, like Gecko) Chrome/79.0.3945.130 Safari/537.36","0.5","[{""page_index"":0,""viewing_time"":1662},{""page_index"":1,""viewing_time"":4840},{""page_index"":2,""viewing_time"":1511}]","8014","","","","","","","","",""
"","survey-html-form","2","20707","0.0-1.0-1.0","partial","Male","25","United States of America","","C482806","WA","freqGain","Mozilla/5.0 (Windows NT 6.1; Win64; x64) AppleWebKit/537.36 (KHTML, like Gecko) Chrome/79.0.3945.130 Safari/537.36","0.5","","10870.149999856949","{""legs"":""checked"",""body"":""checked"",""wings"":""checked"",""antennae"":""checked"",""change"":""no"",""telldangerous"":""feature"",""avoidinfo"":""noInfo""}","","","","","","","",""
"","html-button-response","3","21467","0.0-2.0","partial","Male","25","United States of America","","C482806","WA","freqGain","Mozilla/5.0 (Windows NT 6.1; Win64; x64) AppleWebKit/537.36 (KHTML, like Gecko) Chrome/79.0.3945.130 Safari/537.36","0.5","","758","","<p>Well done! This is now the last page of instructions.</p> <p>You're going to start experiment now.</p>","0","","","","","",""
"","html-button-response","4","22482","0.0-3.0-0.0","partial","Male","25","United States of America","","C482806","WA","freqGain","Mozilla/5.0 (Windows NT 6.1; Win64; x64) AppleWebKit/537.36 (KHTML, like Gecko) Chrome/79.0.3945.130 Safari/537.36","0.5","","1014","","<img src = 'img/A1-B1-L0-W0.jpg' width = '600'>","0","1","","","","",""
"","html-keyboard-response","5","24483","0.0-3.0-1.0","partial","Male","25","United States of America","","C482806","WA","freqGain","Mozilla/5.0 (Windows NT 6.1; Win64; x64) AppleWebKit/537.36 (KHTML, like Gecko) Chrome/79.0.3945.130 Safari/537.36","0.5","","null","","Ouch, you were stung! You lost <b>-1 </b>point.","","1","null","-1","49","",""
"","html-button-response","6","28162","0.0-3.0-0.1","partial","Male","25","United States of America","","C482806","WA","freqGain","Mozilla/5.0 (Windows NT 6.1; Win64; x64) AppleWebKit/537.36 (KHTML, like Gecko) Chrome/79.0.3945.130 Safari/537.36","0.5","","3677","","<img src = 'img/A1-B1-L0-W1.jpg' width = '600'>","0","2","","","","",""
"","html-keyboard-response","7","30163","0.0-3.0-1.1","partial","Male","25","United States of America","","C482806","WA","freqGain","Mozilla/5.0 (Windows NT 6.1; Win64; x64) AppleWebKit/537.36 (KHTML, like Gecko) Chrome/79.0.3945.130 Safari/537.36","0.5","","null","","You successfully harvested honey! You earned <b>3 </b>points.","","2","null","3","52","",""
"","html-button-response","8","30714","0.0-3.0-0.2","partial","Male","25","United States of America","","C482806","WA","freqGain","Mozilla/5.0 (Windows NT 6.1; Win64; x64) AppleWebKit/537.36 (KHTML, like Gecko) Chrome/79.0.3945.130 Safari/537.36","0.5","","550","","<img src = 'img/A1-B1-L1-W1.jpg' width = '600'>","0","3","","","","",""
"","html-keyboard-response","9","32715","0.0-3.0-1.2","partial","Male","25","United States of America","","C482806","WA","freqGain","Mozilla/5.0 (Windows NT 6.1; Win64; x64) AppleWebKit/537.36 (KHTML, like Gecko) Chrome/79.0.3945.130 Safari/537.36","0.5","","null","","You successfully harvested honey! You earned <b>3 </b>points.","","3","null","3","55","",""
"","html-button-response","10","33490","0.0-3.0-0.3","partial","Male","25","United States of America","","C482806","WA","freqGain","Mozilla/5.0 (Windows NT 6.1; Win64; x64) AppleWebKit/537.36 (KHTML, like Gecko) Chrome/79.0.3945.130 Safari/537.36","0.5","","773","","<img src = 'img/A0-B0-L1-W1.jpg' width = '600'>","0","4","","","","",""
"","html-keyboard-response","11","35491","0.0-3.0-1.3","partial","Male","25","United States of America","","C482806","WA","freqGain","Mozilla/5.0 (Windows NT 6.1; Win64; x64) AppleWebKit/537.36 (KHTML, like Gecko) Chrome/79.0.3945.130 Safari/537.36","0.5","","null","","Ouch, you were stung! You lost <b>-1 </b>point.","","4","null","-1","54","",""
"","html-button-response","12","35946","0.0-3.0-0.4","partial","Male","25","United States of America","","C482806","WA","freqGain","Mozilla/5.0 (Windows NT 6.1; Win64; x64) AppleWebKit/537.36 (KHTML, like Gecko) Chrome/79.0.3945.130 Safari/537.36","0.5","","453","","<img src = 'img/A1-B1-L1-W0.jpg' width = '600'>","0","5","","","","",""
"","html-keyboard-response","13","37947","0.0-3.0-1.4","partial","Male","25","United States of America","","C482806","WA","freqGain","Mozilla/5.0 (Windows NT 6.1; Win64; x64) AppleWebKit/537.36 (KHTML, like Gecko) Chrome/79.0.3945.130 Safari/537.36","0.5","","null","","Ouch, you were stung! You lost <b>-1 </b>point.","","5","null","-1","53","",""
"","html-button-response","14","38346","0.0-3.0-0.5","partial","Male","25","United States of America","","C482806","WA","freqGain","Mozilla/5.0 (Windows NT 6.1; Win64; x64) AppleWebKit/537.36 (KHTML, like Gecko) Chrome/79.0.3945.130 Safari/537.36","0.5","","398","","<img src = 'img/A0-B1-L0-W1.jpg' width = '600'>","0","6","","","","",""
"","html-keyboard-response","15","40347","0.0-3.0-1.5","partial","Male","25","United States of America","","C482806","WA","freqGain","Mozilla/5.0 (Windows NT 6.1; Win64; x64) AppleWebKit/537.36 (KHTML, like Gecko) Chrome/79.0.3945.130 Safari/537.36","0.5","","null","","Ouch, you were stung! You lost <b>-1 </b>point.","","6","null","-1","52","",""
"","html-button-response","16","41129","0.0-3.0-0.6","partial","Male","25","United States of America","","C482806","WA","freqGain","Mozilla/5.0 (Windows NT 6.1; Win64; x64) AppleWebKit/537.36 (KHTML, like Gecko) Chrome/79.0.3945.130 Safari/537.36","0.5","","781","","<img src = 'img/A0-B0-L0-W0.jpg' width = '600'>","0","7","","","","",""
"","html-keyboard-response","17","43131","0.0-3.0-1.6","partial","Male","25","United States of America","","C482806","WA","freqGain","Mozilla/5.0 (Windows NT 6.1; Win64; x64) AppleWebKit/537.36 (KHTML, like Gecko) Chrome/79.0.3945.130 Safari/537.36","0.5","","null","","Ouch, you were stung! You lost <b>-1 </b>point.","","7","null","-1","51","",""
"","html-button-response","18","43769","0.0-3.0-0.7","partial","Male","25","United States of America","","C482806","WA","freqGain","Mozilla/5.0 (Windows NT 6.1; Win64; x64) AppleWebKit/537.36 (KHTML, like Gecko) Chrome/79.0.3945.130 Safari/537.36","0.5","","638","","<img src = 'img/A0-B1-L1-W0.jpg' width = '600'>","0","8","","","","",""
"","html-keyboard-response","19","45770","0.0-3.0-1.7","partial","Male","25","United States of America","","C482806","WA","freqGain","Mozilla/5.0 (Windows NT 6.1; Win64; x64) AppleWebKit/537.36 (KHTML, like Gecko) Chrome/79.0.3945.130 Safari/537.36","0.5","","null","","Ouch, you were stung! You lost <b>-1 </b>point.","","8","null","-1","50","",""
"","html-button-response","20","93979","0.0-3.0-0.8","partial","Male","25","United States of America","","C482806","WA","freqGain","Mozilla/5.0 (Windows NT 6.1; Win64; x64) AppleWebKit/537.36 (KHTML, like Gecko) Chrome/79.0.3945.130 Safari/537.36","0.5","","48208","","<img src = 'img/A1-B0-L1-W1.jpg' width = '600'>","0","9","","","","",""
"","html-keyboard-response","21","95980","0.0-3.0-1.8","partial","Male","25","United States of America","","C482806","WA","freqGain","Mozilla/5.0 (Windows NT 6.1; Win64; x64) AppleWebKit/537.36 (KHTML, like Gecko) Chrome/79.0.3945.130 Safari/537.36","0.5","","null","","You successfully harvested honey! You earned <b>3 </b>points.","","9","null","3","53","",""
"","html-button-response","22","96267","0.0-3.0-0.9","partial","Male","25","United States of America","","C482806","WA","freqGain","Mozilla/5.0 (Windows NT 6.1; Win64; x64) AppleWebKit/537.36 (KHTML, like Gecko) Chrome/79.0.3945.130 Safari/537.36","0.5","","286","","<img src = 'img/A0-B0-L0-W1.jpg' width = '600'>","0","10","","","","",""
"","html-keyboard-response","23","98268","0.0-3.0-1.9","partial","Male","25","United States of America","","C482806","WA","freqGain","Mozilla/5.0 (Windows NT 6.1; Win64; x64) AppleWebKit/537.36 (KHTML, like Gecko) Chrome/79.0.3945.130 Safari/537.36","0.5","","null","","Ouch, you were stung! You lost <b>-1 </b>point.","","10","null","-1","52","",""
"","html-button-response","24","98508","0.0-3.0-0.10","partial","Male","25","United States of America","","C482806","WA","freqGain","Mozilla/5.0 (Windows NT 6.1; Win64; x64) AppleWebKit/537.36 (KHTML, like Gecko) Chrome/79.0.3945.130 Safari/537.36","0.5","","238","","<img src = 'img/A1-B0-L0-W0.jpg' width = '600'>","0","11","","","","",""
"","html-keyboard-response","25","100509","0.0-3.0-1.10","partial","Male","25","United States of America","","C482806","WA","freqGain","Mozilla/5.0 (Windows NT 6.1; Win64; x64) AppleWebKit/537.36 (KHTML, like Gecko) Chrome/79.0.3945.130 Safari/537.36","0.5","","null","","Ouch, you were stung! You lost <b>-1 </b>point.","","11","null","-1","51","",""
"","html-button-response","26","100803","0.0-3.0-0.11","partial","Male","25","United States of America","","C482806","WA","freqGain","Mozilla/5.0 (Windows NT 6.1; Win64; x64) AppleWebKit/537.36 (KHTML, like Gecko) Chrome/79.0.3945.130 Safari/537.36","0.5","","292","","<img src = 'img/A1-B0-L1-W0.jpg' width = '600'>","0","12","","","","",""
"","html-keyboard-response","27","102804","0.0-3.0-1.11","partial","Male","25","United States of America","","C482806","WA","freqGain","Mozilla/5.0 (Windows NT 6.1; Win64; x64) AppleWebKit/537.36 (KHTML, like Gecko) Chrome/79.0.3945.130 Safari/537.36","0.5","","null","","Ouch, you were stung! You lost <b>-1 </b>point.","","12","null","-1","50","",""
"","html-button-response","28","102979","0.0-3.0-0.12","partial","Male","25","United States of America","","C482806","WA","freqGain","Mozilla/5.0 (Windows NT 6.1; Win64; x64) AppleWebKit/537.36 (KHTML, like Gecko) Chrome/79.0.3945.130 Safari/537.36","0.5","","173","","<img src = 'img/A0-B1-L0-W0.jpg' width = '600'>","0","13","","","","",""
"","html-keyboard-response","29","104980","0.0-3.0-1.12","partial","Male","25","United States of America","","C482806","WA","freqGain","Mozilla/5.0 (Windows NT 6.1; Win64; x64) AppleWebKit/537.36 (KHTML, like Gecko) Chrome/79.0.3945.130 Safari/537.36","0.5","","null","","Ouch, you were stung! You lost <b>-1 </b>point.","","13","null","-1","49","",""
"","html-button-response","30","105227","0.0-3.0-0.13","partial","Male","25","United States of America","","C482806","WA","freqGain","Mozilla/5.0 (Windows NT 6.1; Win64; x64) AppleWebKit/537.36 (KHTML, like Gecko) Chrome/79.0.3945.130 Safari/537.36","0.5","","245","","<img src = 'img/A0-B0-L1-W0.jpg' width = '600'>","0","14","","","","",""
"","html-keyboard-response","31","107228","0.0-3.0-1.13","partial","Male","25","United States of America","","C482806","WA","freqGain","Mozilla/5.0 (Windows NT 6.1; Win64; x64) AppleWebKit/537.36 (KHTML, like Gecko) Chrome/79.0.3945.130 Safari/537.36","0.5","","null","","Ouch, you were stung! You lost <b>-1 </b>point.","","14","null","-1","48","",""
"","html-button-response","32","107531","0.0-3.0-0.14","partial","Male","25","United States of America","","C482806","WA","freqGain","Mozilla/5.0 (Windows NT 6.1; Win64; x64) AppleWebKit/537.36 (KHTML, like Gecko) Chrome/79.0.3945.130 Safari/537.36","0.5","","302","","<img src = 'img/A1-B0-L0-W1.jpg' width = '600'>","0","15","","","","",""
"","html-keyboard-response","33","109532","0.0-3.0-1.14","partial","Male","25","United States of America","","C482806","WA","freqGain","Mozilla/5.0 (Windows NT 6.1; Win64; x64) AppleWebKit/537.36 (KHTML, like Gecko) Chrome/79.0.3945.130 Safari/537.36","0.5","","null","","You successfully harvested honey! You earned <b>3 </b>points.","","15","null","3","51","",""
"","html-button-response","34","109842","0.0-3.0-0.15","partial","Male","25","United States of America","","C482806","WA","freqGain","Mozilla/5.0 (Windows NT 6.1; Win64; x64) AppleWebKit/537.36 (KHTML, like Gecko) Chrome/79.0.3945.130 Safari/537.36","0.5","","310","","<img src = 'img/A0-B1-L1-W1.jpg' width = '600'>","0","16","","","","",""
"","html-keyboard-response","35","111844","0.0-3.0-1.15","partial","Male","25","United States of America","","C482806","WA","freqGain","Mozilla/5.0 (Windows NT 6.1; Win64; x64) AppleWebKit/537.36 (KHTML, like Gecko) Chrome/79.0.3945.130 Safari/537.36","0.5","","null","","Ouch, you were stung! You lost <b>-1 </b>point.","","16","null","-1","50","",""
"","html-button-response","36","112058","0.0-3.0-0.16","partial","Male","25","United States of America","","C482806","WA","freqGain","Mozilla/5.0 (Windows NT 6.1; Win64; x64) AppleWebKit/537.36 (KHTML, like Gecko) Chrome/79.0.3945.130 Safari/537.36","0.5","","214","","<img src = 'img/A0-B1-L0-W0.jpg' width = '600'>","0","17","","","","",""
"","html-keyboard-response","37","114059","0.0-3.0-1.16","partial","Male","25","United States of America","","C482806","WA","freqGain","Mozilla/5.0 (Windows NT 6.1; Win64; x64) AppleWebKit/537.36 (KHTML, like Gecko) Chrome/79.0.3945.130 Safari/537.36","0.5","","null","","Ouch, you were stung! You lost <b>-1 </b>point.","","17","null","-1","49","",""
"","html-button-response","38","167355","0.0-3.0-0.17","partial","Male","25","United States of America","","C482806","WA","freqGain","Mozilla/5.0 (Windows NT 6.1; Win64; x64) AppleWebKit/537.36 (KHTML, like Gecko) Chrome/79.0.3945.130 Safari/537.36","0.5","","53295","","<img src = 'img/A0-B0-L0-W1.jpg' width = '600'>","0","18","","","","",""
"","html-keyboard-response","39","169356","0.0-3.0-1.17","partial","Male","25","United States of America","","C482806","WA","freqGain","Mozilla/5.0 (Windows NT 6.1; Win64; x64) AppleWebKit/537.36 (KHTML, like Gecko) Chrome/79.0.3945.130 Safari/537.36","0.5","","null","","Ouch, you were stung! You lost <b>-1 </b>point.","","18","null","-1","48","",""
"","html-button-response","40","176587","0.0-3.0-0.18","partial","Male","25","United States of America","","C482806","WA","freqGain","Mozilla/5.0 (Windows NT 6.1; Win64; x64) AppleWebKit/537.36 (KHTML, like Gecko) Chrome/79.0.3945.130 Safari/537.36","0.5","","7229","","<img src = 'img/A0-B0-L0-W0.jpg' width = '600'>","0","19","","","","",""
"","html-keyboard-response","41","178588","0.0-3.0-1.18","partial","Male","25","United States of America","","C482806","WA","freqGain","Mozilla/5.0 (Windows NT 6.1; Win64; x64) AppleWebKit/537.36 (KHTML, like Gecko) Chrome/79.0.3945.130 Safari/537.36","0.5","","null","","Ouch, you were stung! You lost <b>-1 </b>point.","","19","null","-1","47","",""
"","html-button-response","42","178860","0.0-3.0-0.19","partial","Male","25","United States of America","","C482806","WA","freqGain","Mozilla/5.0 (Windows NT 6.1; Win64; x64) AppleWebKit/537.36 (KHTML, like Gecko) Chrome/79.0.3945.130 Safari/537.36","0.5","","269","","<img src = 'img/A0-B0-L1-W0.jpg' width = '600'>","0","20","","","","",""
"","html-keyboard-response","43","180861","0.0-3.0-1.19","partial","Male","25","United States of America","","C482806","WA","freqGain","Mozilla/5.0 (Windows NT 6.1; Win64; x64) AppleWebKit/537.36 (KHTML, like Gecko) Chrome/79.0.3945.130 Safari/537.36","0.5","","null","","Ouch, you were stung! You lost <b>-1 </b>point.","","20","null","-1","46","",""
"","html-button-response","44","181107","0.0-3.0-0.20","partial","Male","25","United States of America","","C482806","WA","freqGain","Mozilla/5.0 (Windows NT 6.1; Win64; x64) AppleWebKit/537.36 (KHTML, like Gecko) Chrome/79.0.3945.130 Safari/537.36","0.5","","244","","<img src = 'img/A1-B1-L0-W1.jpg' width = '600'>","0","21","","","","",""
"","html-keyboard-response","45","183108","0.0-3.0-1.20","partial","Male","25","United States of America","","C482806","WA","freqGain","Mozilla/5.0 (Windows NT 6.1; Win64; x64) AppleWebKit/537.36 (KHTML, like Gecko) Chrome/79.0.3945.130 Safari/537.36","0.5","","null","","You successfully harvested honey! You earned <b>3 </b>points.","","21","null","3","49","",""
"","html-button-response","46","183394","0.0-3.0-0.21","partial","Male","25","United States of America","","C482806","WA","freqGain","Mozilla/5.0 (Windows NT 6.1; Win64; x64) AppleWebKit/537.36 (KHTML, like Gecko) Chrome/79.0.3945.130 Safari/537.36","0.5","","286","","<img src = 'img/A1-B0-L1-W0.jpg' width = '600'>","0","22","","","","",""
"","html-keyboard-response","47","185395","0.0-3.0-1.21","partial","Male","25","United States of America","","C482806","WA","freqGain","Mozilla/5.0 (Windows NT 6.1; Win64; x64) AppleWebKit/537.36 (KHTML, like Gecko) Chrome/79.0.3945.130 Safari/537.36","0.5","","null","","Ouch, you were stung! You lost <b>-1 </b>point.","","22","null","-1","48","",""
"","html-button-response","48","185690","0.0-3.0-0.22","partial","Male","25","United States of America","","C482806","WA","freqGain","Mozilla/5.0 (Windows NT 6.1; Win64; x64) AppleWebKit/537.36 (KHTML, like Gecko) Chrome/79.0.3945.130 Safari/537.36","0.5","","294","","<img src = 'img/A1-B0-L0-W1.jpg' width = '600'>","0","23","","","","",""
"","html-keyboard-response","49","187691","0.0-3.0-1.22","partial","Male","25","United States of America","","C482806","WA","freqGain","Mozilla/5.0 (Windows NT 6.1; Win64; x64) AppleWebKit/537.36 (KHTML, like Gecko) Chrome/79.0.3945.130 Safari/537.36","0.5","","null","","You successfully harvested honey! You earned <b>3 </b>points.","","23","null","3","51","",""
"","html-button-response","50","187890","0.0-3.0-0.23","partial","Male","25","United States of America","","C482806","WA","freqGain","Mozilla/5.0 (Windows NT 6.1; Win64; x64) AppleWebKit/537.36 (KHTML, like Gecko) Chrome/79.0.3945.130 Safari/537.36","0.5","","198","","<img src = 'img/A0-B1-L1-W0.jpg' width = '600'>","0","24","","","","",""
"","html-keyboard-response","51","189891","0.0-3.0-1.23","partial","Male","25","United States of America","","C482806","WA","freqGain","Mozilla/5.0 (Windows NT 6.1; Win64; x64) AppleWebKit/537.36 (KHTML, like Gecko) Chrome/79.0.3945.130 Safari/537.36","0.5","","null","","Ouch, you were stung! You lost <b>-1 </b>point.","","24","null","-1","50","",""
"","html-button-response","52","190026","0.0-3.0-0.24","partial","Male","25","United States of America","","C482806","WA","freqGain","Mozilla/5.0 (Windows NT 6.1; Win64; x64) AppleWebKit/537.36 (KHTML, like Gecko) Chrome/79.0.3945.130 Safari/537.36","0.5","","134","","<img src = 'img/A1-B1-L1-W1.jpg' width = '600'>","0","25","","","","",""
"","html-keyboard-response","53","192027","0.0-3.0-1.24","partial","Male","25","United States of America","","C482806","WA","freqGain","Mozilla/5.0 (Windows NT 6.1; Win64; x64) AppleWebKit/537.36 (KHTML, like Gecko) Chrome/79.0.3945.130 Safari/537.36","0.5","","null","","You successfully harvested honey! You earned <b>3 </b>points.","","25","null","3","53","",""
"","html-button-response","54","192354","0.0-3.0-0.25","partial","Male","25","United States of America","","C482806","WA","freqGain","Mozilla/5.0 (Windows NT 6.1; Win64; x64) AppleWebKit/537.36 (KHTML, like Gecko) Chrome/79.0.3945.130 Safari/537.36","0.5","","326","","<img src = 'img/A1-B0-L1-W1.jpg' width = '600'>","0","26","","","","",""
"","html-keyboard-response","55","194355","0.0-3.0-1.25","partial","Male","25","United States of America","","C482806","WA","freqGain","Mozilla/5.0 (Windows NT 6.1; Win64; x64) AppleWebKit/537.36 (KHTML, like Gecko) Chrome/79.0.3945.130 Safari/537.36","0.5","","null","","You successfully harvested honey! You earned <b>3 </b>points.","","26","null","3","56","",""
"","html-button-response","56","194674","0.0-3.0-0.26","partial","Male","25","United States of America","","C482806","WA","freqGain","Mozilla/5.0 (Windows NT 6.1; Win64; x64) AppleWebKit/537.36 (KHTML, like Gecko) Chrome/79.0.3945.130 Safari/537.36","0.5","","317","","<img src = 'img/A0-B0-L1-W1.jpg' width = '600'>","0","27","","","","",""
"","html-keyboard-response","57","196675","0.0-3.0-1.26","partial","Male","25","United States of America","","C482806","WA","freqGain","Mozilla/5.0 (Windows NT 6.1; Win64; x64) AppleWebKit/537.36 (KHTML, like Gecko) Chrome/79.0.3945.130 Safari/537.36","0.5","","null","","Ouch, you were stung! You lost <b>-1 </b>point.","","27","null","-1","55","",""
"","html-button-response","58","197034","0.0-3.0-0.27","partial","Male","25","United States of America","","C482806","WA","freqGain","Mozilla/5.0 (Windows NT 6.1; Win64; x64) AppleWebKit/537.36 (KHTML, like Gecko) Chrome/79.0.3945.130 Safari/537.36","0.5","","357","","<img src = 'img/A1-B1-L1-W0.jpg' width = '600'>","0","28","","","","",""
"","html-keyboard-response","59","199035","0.0-3.0-1.27","partial","Male","25","United States of America","","C482806","WA","freqGain","Mozilla/5.0 (Windows NT 6.1; Win64; x64) AppleWebKit/537.36 (KHTML, like Gecko) Chrome/79.0.3945.130 Safari/537.36","0.5","","null","","Ouch, you were stung! You lost <b>-1 </b>point.","","28","null","-1","54","",""
"","html-button-response","60","199586","0.0-3.0-0.28","partial","Male","25","United States of America","","C482806","WA","freqGain","Mozilla/5.0 (Windows NT 6.1; Win64; x64) AppleWebKit/537.36 (KHTML, like Gecko) Chrome/79.0.3945.130 Safari/537.36","0.5","","549","","<img src = 'img/A0-B1-L0-W1.jpg' width = '600'>","0","29","","","","",""
"","html-keyboard-response","61","201587","0.0-3.0-1.28","partial","Male","25","United States of America","","C482806","WA","freqGain","Mozilla/5.0 (Windows NT 6.1; Win64; x64) AppleWebKit/537.36 (KHTML, like Gecko) Chrome/79.0.3945.130 Safari/537.36","0.5","","null","","Ouch, you were stung! You lost <b>-1 </b>point.","","29","null","-1","53","",""
"","html-button-response","62","202082","0.0-3.0-0.29","partial","Male","25","United States of America","","C482806","WA","freqGain","Mozilla/5.0 (Windows NT 6.1; Win64; x64) AppleWebKit/537.36 (KHTML, like Gecko) Chrome/79.0.3945.130 Safari/537.36","0.5","","494","","<img src = 'img/A1-B1-L0-W0.jpg' width = '600'>","0","30","","","","",""
"","html-keyboard-response","63","204083","0.0-3.0-1.29","partial","Male","25","United States of America","","C482806","WA","freqGain","Mozilla/5.0 (Windows NT 6.1; Win64; x64) AppleWebKit/537.36 (KHTML, like Gecko) Chrome/79.0.3945.130 Safari/537.36","0.5","","null","","Ouch, you were stung! You lost <b>-1 </b>point.","","30","null","-1","52","",""
"","html-button-response","64","204553","0.0-3.0-0.30","partial","Male","25","United States of America","","C482806","WA","freqGain","Mozilla/5.0 (Windows NT 6.1; Win64; x64) AppleWebKit/537.36 (KHTML, like Gecko) Chrome/79.0.3945.130 Safari/537.36","0.5","","470","","<img src = 'img/A1-B0-L0-W0.jpg' width = '600'>","0","31","","","","",""
"","html-keyboard-response","65","206554","0.0-3.0-1.30","partial","Male","25","United States of America","","C482806","WA","freqGain","Mozilla/5.0 (Windows NT 6.1; Win64; x64) AppleWebKit/537.36 (KHTML, like Gecko) Chrome/79.0.3945.130 Safari/537.36","0.5","","null","","Ouch, you were stung! You lost <b>-1 </b>point.","","31","null","-1","51","",""
"","html-button-response","66","207497","0.0-3.0-0.31","partial","Male","25","United States of America","","C482806","WA","freqGain","Mozilla/5.0 (Windows NT 6.1; Win64; x64) AppleWebKit/537.36 (KHTML, like Gecko) Chrome/79.0.3945.130 Safari/537.36","0.5","","942","","<img src = 'img/A0-B1-L1-W1.jpg' width = '600'>","0","32","","","","",""
"","html-keyboard-response","67","209498","0.0-3.0-1.31","partial","Male","25","United States of America","","C482806","WA","freqGain","Mozilla/5.0 (Windows NT 6.1; Win64; x64) AppleWebKit/537.36 (KHTML, like Gecko) Chrome/79.0.3945.130 Safari/537.36","0.5","","null","","Ouch, you were stung! You lost <b>-1 </b>point.","","32","null","-1","50","",""
"","html-button-response","68","209833","0.0-3.0-0.32","partial","Male","25","United States of America","","C482806","WA","freqGain","Mozilla/5.0 (Windows NT 6.1; Win64; x64) AppleWebKit/537.36 (KHTML, like Gecko) Chrome/79.0.3945.130 Safari/537.36","0.5","","334","","<img src = 'img/A0-B0-L0-W1.jpg' width = '600'>","0","33","","","","",""
"","html-keyboard-response","69","211835","0.0-3.0-1.32","partial","Male","25","United States of America","","C482806","WA","freqGain","Mozilla/5.0 (Windows NT 6.1; Win64; x64) AppleWebKit/537.36 (KHTML, like Gecko) Chrome/79.0.3945.130 Safari/537.36","0.5","","null","","Ouch, you were stung! You lost <b>-1 </b>point.","","33","null","-1","49","",""
"","html-button-response","70","212057","0.0-3.0-0.33","partial","Male","25","United States of America","","C482806","WA","freqGain","Mozilla/5.0 (Windows NT 6.1; Win64; x64) AppleWebKit/537.36 (KHTML, like Gecko) Chrome/79.0.3945.130 Safari/537.36","0.5","","221","","<img src = 'img/A1-B0-L1-W0.jpg' width = '600'>","0","34","","","","",""
"","html-keyboard-response","71","214058","0.0-3.0-1.33","partial","Male","25","United States of America","","C482806","WA","freqGain","Mozilla/5.0 (Windows NT 6.1; Win64; x64) AppleWebKit/537.36 (KHTML, like Gecko) Chrome/79.0.3945.130 Safari/537.36","0.5","","null","","Ouch, you were stung! You lost <b>-1 </b>point.","","34","null","-1","48","",""
"","html-button-response","72","215113","0.0-3.0-0.34","partial","Male","25","United States of America","","C482806","WA","freqGain","Mozilla/5.0 (Windows NT 6.1; Win64; x64) AppleWebKit/537.36 (KHTML, like Gecko) Chrome/79.0.3945.130 Safari/537.36","0.5","","1053","","<img src = 'img/A1-B1-L0-W1.jpg' width = '600'>","0","35","","","","",""
"","html-keyboard-response","73","217114","0.0-3.0-1.34","partial","Male","25","United States of America","","C482806","WA","freqGain","Mozilla/5.0 (Windows NT 6.1; Win64; x64) AppleWebKit/537.36 (KHTML, like Gecko) Chrome/79.0.3945.130 Safari/537.36","0.5","","null","","You successfully harvested honey! You earned <b>3 </b>points.","","35","null","3","51","",""
"","html-button-response","74","217689","0.0-3.0-0.35","partial","Male","25","United States of America","","C482806","WA","freqGain","Mozilla/5.0 (Windows NT 6.1; Win64; x64) AppleWebKit/537.36 (KHTML, like Gecko) Chrome/79.0.3945.130 Safari/537.36","0.5","","574","","<img src = 'img/A0-B1-L0-W1.jpg' width = '600'>","0","36","","","","",""
"","html-keyboard-response","75","219690","0.0-3.0-1.35","partial","Male","25","United States of America","","C482806","WA","freqGain","Mozilla/5.0 (Windows NT 6.1; Win64; x64) AppleWebKit/537.36 (KHTML, like Gecko) Chrome/79.0.3945.130 Safari/537.36","0.5","","null","","Ouch, you were stung! You lost <b>-1 </b>point.","","36","null","-1","50","",""
"","html-button-response","76","219945","0.0-3.0-0.36","partial","Male","25","United States of America","","C482806","WA","freqGain","Mozilla/5.0 (Windows NT 6.1; Win64; x64) AppleWebKit/537.36 (KHTML, like Gecko) Chrome/79.0.3945.130 Safari/537.36","0.5","","254","","<img src = 'img/A1-B0-L1-W1.jpg' width = '600'>","0","37","","","","",""
"","html-keyboard-response","77","221946","0.0-3.0-1.36","partial","Male","25","United States of America","","C482806","WA","freqGain","Mozilla/5.0 (Windows NT 6.1; Win64; x64) AppleWebKit/537.36 (KHTML, like Gecko) Chrome/79.0.3945.130 Safari/537.36","0.5","","null","","You successfully harvested honey! You earned <b>3 </b>points.","","37","null","3","53","",""
"","html-button-response","78","222217","0.0-3.0-0.37","partial","Male","25","United States of America","","C482806","WA","freqGain","Mozilla/5.0 (Windows NT 6.1; Win64; x64) AppleWebKit/537.36 (KHTML, like Gecko) Chrome/79.0.3945.130 Safari/537.36","0.5","","269","","<img src = 'img/A1-B1-L1-W0.jpg' width = '600'>","0","38","","","","",""
"","html-keyboard-response","79","224218","0.0-3.0-1.37","partial","Male","25","United States of America","","C482806","WA","freqGain","Mozilla/5.0 (Windows NT 6.1; Win64; x64) AppleWebKit/537.36 (KHTML, like Gecko) Chrome/79.0.3945.130 Safari/537.36","0.5","","null","","Ouch, you were stung! You lost <b>-1 </b>point.","","38","null","-1","52","",""
"","html-button-response","80","227844","0.0-3.0-0.38","partial","Male","25","United States of America","","C482806","WA","freqGain","Mozilla/5.0 (Windows NT 6.1; Win64; x64) AppleWebKit/537.36 (KHTML, like Gecko) Chrome/79.0.3945.130 Safari/537.36","0.5","","3625","","<img src = 'img/A0-B0-L1-W1.jpg' width = '600'>","0","39","","","","",""
"","html-keyboard-response","81","229845","0.0-3.0-1.38","partial","Male","25","United States of America","","C482806","WA","freqGain","Mozilla/5.0 (Windows NT 6.1; Win64; x64) AppleWebKit/537.36 (KHTML, like Gecko) Chrome/79.0.3945.130 Safari/537.36","0.5","","null","","Ouch, you were stung! You lost <b>-1 </b>point.","","39","null","-1","51","",""
"","html-button-response","82","230156","0.0-3.0-0.39","partial","Male","25","United States of America","","C482806","WA","freqGain","Mozilla/5.0 (Windows NT 6.1; Win64; x64) AppleWebKit/537.36 (KHTML, like Gecko) Chrome/79.0.3945.130 Safari/537.36","0.5","","309","","<img src = 'img/A0-B1-L1-W1.jpg' width = '600'>","0","40","","","","",""
"","html-keyboard-response","83","232157","0.0-3.0-1.39","partial","Male","25","United States of America","","C482806","WA","freqGain","Mozilla/5.0 (Windows NT 6.1; Win64; x64) AppleWebKit/537.36 (KHTML, like Gecko) Chrome/79.0.3945.130 Safari/537.36","0.5","","null","","Ouch, you were stung! You lost <b>-1 </b>point.","","40","null","-1","50","",""
"","html-button-response","84","232475","0.0-3.0-0.40","partial","Male","25","United States of America","","C482806","WA","freqGain","Mozilla/5.0 (Windows NT 6.1; Win64; x64) AppleWebKit/537.36 (KHTML, like Gecko) Chrome/79.0.3945.130 Safari/537.36","0.5","","318","","<img src = 'img/A1-B0-L0-W0.jpg' width = '600'>","0","41","","","","",""
"","html-keyboard-response","85","234477","0.0-3.0-1.40","partial","Male","25","United States of America","","C482806","WA","freqGain","Mozilla/5.0 (Windows NT 6.1; Win64; x64) AppleWebKit/537.36 (KHTML, like Gecko) Chrome/79.0.3945.130 Safari/537.36","0.5","","null","","Ouch, you were stung! You lost <b>-1 </b>point.","","41","null","-1","49","",""
"","html-button-response","86","234803","0.0-3.0-0.41","partial","Male","25","United States of America","","C482806","WA","freqGain","Mozilla/5.0 (Windows NT 6.1; Win64; x64) AppleWebKit/537.36 (KHTML, like Gecko) Chrome/79.0.3945.130 Safari/537.36","0.5","","326","","<img src = 'img/A0-B0-L0-W0.jpg' width = '600'>","0","42","","","","",""
"","html-keyboard-response","87","236804","0.0-3.0-1.41","partial","Male","25","United States of America","","C482806","WA","freqGain","Mozilla/5.0 (Windows NT 6.1; Win64; x64) AppleWebKit/537.36 (KHTML, like Gecko) Chrome/79.0.3945.130 Safari/537.36","0.5","","null","","Ouch, you were stung! You lost <b>-1 </b>point.","","42","null","-1","48","",""
"","html-button-response","88","237155","0.0-3.0-0.42","partial","Male","25","United States of America","","C482806","WA","freqGain","Mozilla/5.0 (Windows NT 6.1; Win64; x64) AppleWebKit/537.36 (KHTML, like Gecko) Chrome/79.0.3945.130 Safari/537.36","0.5","","350","","<img src = 'img/A0-B1-L0-W0.jpg' width = '600'>","0","43","","","","",""
"","html-keyboard-response","89","239156","0.0-3.0-1.42","partial","Male","25","United States of America","","C482806","WA","freqGain","Mozilla/5.0 (Windows NT 6.1; Win64; x64) AppleWebKit/537.36 (KHTML, like Gecko) Chrome/79.0.3945.130 Safari/537.36","0.5","","null","","Ouch, you were stung! You lost <b>-1 </b>point.","","43","null","-1","47","",""
"","html-button-response","90","239459","0.0-3.0-0.43","partial","Male","25","United States of America","","C482806","WA","freqGain","Mozilla/5.0 (Windows NT 6.1; Win64; x64) AppleWebKit/537.36 (KHTML, like Gecko) Chrome/79.0.3945.130 Safari/537.36","0.5","","302","","<img src = 'img/A1-B1-L0-W0.jpg' width = '600'>","0","44","","","","",""
"","html-keyboard-response","91","241460","0.0-3.0-1.43","partial","Male","25","United States of America","","C482806","WA","freqGain","Mozilla/5.0 (Windows NT 6.1; Win64; x64) AppleWebKit/537.36 (KHTML, like Gecko) Chrome/79.0.3945.130 Safari/537.36","0.5","","null","","Ouch, you were stung! You lost <b>-1 </b>point.","","44","null","-1","46","",""
"","html-button-response","92","241764","0.0-3.0-0.44","partial","Male","25","United States of America","","C482806","WA","freqGain","Mozilla/5.0 (Windows NT 6.1; Win64; x64) AppleWebKit/537.36 (KHTML, like Gecko) Chrome/79.0.3945.130 Safari/537.36","0.5","","302","","<img src = 'img/A1-B0-L0-W1.jpg' width = '600'>","0","45","","","","",""
"","html-keyboard-response","93","243765","0.0-3.0-1.44","partial","Male","25","United States of America","","C482806","WA","freqGain","Mozilla/5.0 (Windows NT 6.1; Win64; x64) AppleWebKit/537.36 (KHTML, like Gecko) Chrome/79.0.3945.130 Safari/537.36","0.5","","null","","You successfully harvested honey! You earned <b>3 </b>points.","","45","null","3","49","",""
"","html-button-response","94","244059","0.0-3.0-0.45","partial","Male","25","United States of America","","C482806","WA","freqGain","Mozilla/5.0 (Windows NT 6.1; Win64; x64) AppleWebKit/537.36 (KHTML, like Gecko) Chrome/79.0.3945.130 Safari/537.36","0.5","","293","","<img src = 'img/A0-B0-L1-W0.jpg' width = '600'>","0","46","","","","",""
"","html-keyboard-response","95","246060","0.0-3.0-1.45","partial","Male","25","United States of America","","C482806","WA","freqGain","Mozilla/5.0 (Windows NT 6.1; Win64; x64) AppleWebKit/537.36 (KHTML, like Gecko) Chrome/79.0.3945.130 Safari/537.36","0.5","","null","","Ouch, you were stung! You lost <b>-1 </b>point.","","46","null","-1","48","",""
"","html-button-response","96","246203","0.0-3.0-0.46","partial","Male","25","United States of America","","C482806","WA","freqGain","Mozilla/5.0 (Windows NT 6.1; Win64; x64) AppleWebKit/537.36 (KHTML, like Gecko) Chrome/79.0.3945.130 Safari/537.36","0.5","","141","","<img src = 'img/A1-B1-L1-W1.jpg' width = '600'>","0","47","","","","",""
"","html-keyboard-response","97","248204","0.0-3.0-1.46","partial","Male","25","United States of America","","C482806","WA","freqGain","Mozilla/5.0 (Windows NT 6.1; Win64; x64) AppleWebKit/537.36 (KHTML, like Gecko) Chrome/79.0.3945.130 Safari/537.36","0.5","","null","","You successfully harvested honey! You earned <b>3 </b>points.","","47","null","3","51","",""
"","html-button-response","98","248555","0.0-3.0-0.47","partial","Male","25","United States of America","","C482806","WA","freqGain","Mozilla/5.0 (Windows NT 6.1; Win64; x64) AppleWebKit/537.36 (KHTML, like Gecko) Chrome/79.0.3945.130 Safari/537.36","0.5","","349","","<img src = 'img/A0-B1-L1-W0.jpg' width = '600'>","0","48","","","","",""
"","html-keyboard-response","99","250556","0.0-3.0-1.47","partial","Male","25","United States of America","","C482806","WA","freqGain","Mozilla/5.0 (Windows NT 6.1; Win64; x64) AppleWebKit/537.36 (KHTML, like Gecko) Chrome/79.0.3945.130 Safari/537.36","0.5","","null","","Ouch, you were stung! You lost <b>-1 </b>point.","","48","null","-1","50","",""
"","html-button-response","100","250907","0.0-3.0-0.48","partial","Male","25","United States of America","","C482806","WA","freqGain","Mozilla/5.0 (Windows NT 6.1; Win64; x64) AppleWebKit/537.36 (KHTML, like Gecko) Chrome/79.0.3945.130 Safari/537.36","0.5","","350","","<img src = 'img/A1-B0-L1-W0.jpg' width = '600'>","0","49","","","","",""
"","html-keyboard-response","101","252908","0.0-3.0-1.48","partial","Male","25","United States of America","","C482806","WA","freqGain","Mozilla/5.0 (Windows NT 6.1; Win64; x64) AppleWebKit/537.36 (KHTML, like Gecko) Chrome/79.0.3945.130 Safari/537.36","0.5","","null","","Ouch, you were stung! You lost <b>-1 </b>point.","","49","null","-1","49","",""
"","html-button-response","102","253170","0.0-3.0-0.49","partial","Male","25","United States of America","","C482806","WA","freqGain","Mozilla/5.0 (Windows NT 6.1; Win64; x64) AppleWebKit/537.36 (KHTML, like Gecko) Chrome/79.0.3945.130 Safari/537.36","0.5","","262","","<img src = 'img/A1-B1-L0-W1.jpg' width = '600'>","0","50","","","","",""
"","html-keyboard-response","103","255172","0.0-3.0-1.49","partial","Male","25","United States of America","","C482806","WA","freqGain","Mozilla/5.0 (Windows NT 6.1; Win64; x64) AppleWebKit/537.36 (KHTML, like Gecko) Chrome/79.0.3945.130 Safari/537.36","0.5","","null","","You successfully harvested honey! You earned <b>3 </b>points.","","50","null","3","52","",""
"","html-button-response","104","257186","0.0-3.0-0.50","partial","Male","25","United States of America","","C482806","WA","freqGain","Mozilla/5.0 (Windows NT 6.1; Win64; x64) AppleWebKit/537.36 (KHTML, like Gecko) Chrome/79.0.3945.130 Safari/537.36","0.5","","2014","","<img src = 'img/A1-B0-L0-W1.jpg' width = '600'>","0","51","","","","",""
"","html-keyboard-response","105","259187","0.0-3.0-1.50","partial","Male","25","United States of America","","C482806","WA","freqGain","Mozilla/5.0 (Windows NT 6.1; Win64; x64) AppleWebKit/537.36 (KHTML, like Gecko) Chrome/79.0.3945.130 Safari/537.36","0.5","","null","","You successfully harvested honey! You earned <b>3 </b>points.","","51","null","3","55","",""
"","html-button-response","106","259858","0.0-3.0-0.51","partial","Male","25","United States of America","","C482806","WA","freqGain","Mozilla/5.0 (Windows NT 6.1; Win64; x64) AppleWebKit/537.36 (KHTML, like Gecko) Chrome/79.0.3945.130 Safari/537.36","0.5","","670","","<img src = 'img/A0-B0-L1-W0.jpg' width = '600'>","0","52","","","","",""
"","html-keyboard-response","107","261859","0.0-3.0-1.51","partial","Male","25","United States of America","","C482806","WA","freqGain","Mozilla/5.0 (Windows NT 6.1; Win64; x64) AppleWebKit/537.36 (KHTML, like Gecko) Chrome/79.0.3945.130 Safari/537.36","0.5","","null","","Ouch, you were stung! You lost <b>-1 </b>point.","","52","null","-1","54","",""
"","html-button-response","108","262498","0.0-3.0-0.52","partial","Male","25","United States of America","","C482806","WA","freqGain","Mozilla/5.0 (Windows NT 6.1; Win64; x64) AppleWebKit/537.36 (KHTML, like Gecko) Chrome/79.0.3945.130 Safari/537.36","0.5","","638","","<img src = 'img/A0-B0-L0-W0.jpg' width = '600'>","0","53","","","","",""
"","html-keyboard-response","109","264499","0.0-3.0-1.52","partial","Male","25","United States of America","","C482806","WA","freqGain","Mozilla/5.0 (Windows NT 6.1; Win64; x64) AppleWebKit/537.36 (KHTML, like Gecko) Chrome/79.0.3945.130 Safari/537.36","0.5","","null","","Ouch, you were stung! You lost <b>-1 </b>point.","","53","null","-1","53","",""
"","html-button-response","110","264850","0.0-3.0-0.53","partial","Male","25","United States of America","","C482806","WA","freqGain","Mozilla/5.0 (Windows NT 6.1; Win64; x64) AppleWebKit/537.36 (KHTML, like Gecko) Chrome/79.0.3945.130 Safari/537.36","0.5","","349","","<img src = 'img/A1-B1-L0-W0.jpg' width = '600'>","0","54","","","","",""
"","html-keyboard-response","111","266851","0.0-3.0-1.53","partial","Male","25","United States of America","","C482806","WA","freqGain","Mozilla/5.0 (Windows NT 6.1; Win64; x64) AppleWebKit/537.36 (KHTML, like Gecko) Chrome/79.0.3945.130 Safari/537.36","0.5","","null","","Ouch, you were stung! You lost <b>-1 </b>point.","","54","null","-1","52","",""
"","html-button-response","112","267154","0.0-3.0-0.54","partial","Male","25","United States of America","","C482806","WA","freqGain","Mozilla/5.0 (Windows NT 6.1; Win64; x64) AppleWebKit/537.36 (KHTML, like Gecko) Chrome/79.0.3945.130 Safari/537.36","0.5","","301","","<img src = 'img/A0-B1-L0-W1.jpg' width = '600'>","0","55","","","","",""
"","html-keyboard-response","113","269155","0.0-3.0-1.54","partial","Male","25","United States of America","","C482806","WA","freqGain","Mozilla/5.0 (Windows NT 6.1; Win64; x64) AppleWebKit/537.36 (KHTML, like Gecko) Chrome/79.0.3945.130 Safari/537.36","0.5","","null","","Ouch, you were stung! You lost <b>-1 </b>point.","","55","null","-1","51","",""
"","html-button-response","114","270834","0.0-3.0-0.55","partial","Male","25","United States of America","","C482806","WA","freqGain","Mozilla/5.0 (Windows NT 6.1; Win64; x64) AppleWebKit/537.36 (KHTML, like Gecko) Chrome/79.0.3945.130 Safari/537.36","0.5","","1677","","<img src = 'img/A0-B1-L0-W0.jpg' width = '600'>","0","56","","","","",""
"","html-keyboard-response","115","272835","0.0-3.0-1.55","partial","Male","25","United States of America","","C482806","WA","freqGain","Mozilla/5.0 (Windows NT 6.1; Win64; x64) AppleWebKit/537.36 (KHTML, like Gecko) Chrome/79.0.3945.130 Safari/537.36","0.5","","null","","Ouch, you were stung! You lost <b>-1 </b>point.","","56","null","-1","50","",""
"","html-button-response","116","273153","0.0-3.0-0.56","partial","Male","25","United States of America","","C482806","WA","freqGain","Mozilla/5.0 (Windows NT 6.1; Win64; x64) AppleWebKit/537.36 (KHTML, like Gecko) Chrome/79.0.3945.130 Safari/537.36","0.5","","318","","<img src = 'img/A1-B0-L0-W0.jpg' width = '600'>","0","57","","","","",""
"","html-keyboard-response","117","275155","0.0-3.0-1.56","partial","Male","25","United States of America","","C482806","WA","freqGain","Mozilla/5.0 (Windows NT 6.1; Win64; x64) AppleWebKit/537.36 (KHTML, like Gecko) Chrome/79.0.3945.130 Safari/537.36","0.5","","null","","Ouch, you were stung! You lost <b>-1 </b>point.","","57","null","-1","49","",""
"","html-button-response","118","275442","0.0-3.0-0.57","partial","Male","25","United States of America","","C482806","WA","freqGain","Mozilla/5.0 (Windows NT 6.1; Win64; x64) AppleWebKit/537.36 (KHTML, like Gecko) Chrome/79.0.3945.130 Safari/537.36","0.5","","286","","<img src = 'img/A0-B1-L1-W1.jpg' width = '600'>","0","58","","","","",""
"","html-keyboard-response","119","277442","0.0-3.0-1.57","partial","Male","25","United States of America","","C482806","WA","freqGain","Mozilla/5.0 (Windows NT 6.1; Win64; x64) AppleWebKit/537.36 (KHTML, like Gecko) Chrome/79.0.3945.130 Safari/537.36","0.5","","null","","Ouch, you were stung! You lost <b>-1 </b>point.","","58","null","-1","48","",""
"","html-button-response","120","277761","0.0-3.0-0.58","partial","Male","25","United States of America","","C482806","WA","freqGain","Mozilla/5.0 (Windows NT 6.1; Win64; x64) AppleWebKit/537.36 (KHTML, like Gecko) Chrome/79.0.3945.130 Safari/537.36","0.5","","318","","<img src = 'img/A1-B0-L1-W1.jpg' width = '600'>","0","59","","","","",""
"","html-keyboard-response","121","279762","0.0-3.0-1.58","partial","Male","25","United States of America","","C482806","WA","freqGain","Mozilla/5.0 (Windows NT 6.1; Win64; x64) AppleWebKit/537.36 (KHTML, like Gecko) Chrome/79.0.3945.130 Safari/537.36","0.5","","null","","You successfully harvested honey! You earned <b>3 </b>points.","","59","null","3","51","",""
"","html-button-response","122","279953","0.0-3.0-0.59","partial","Male","25","United States of America","","C482806","WA","freqGain","Mozilla/5.0 (Windows NT 6.1; Win64; x64) AppleWebKit/537.36 (KHTML, like Gecko) Chrome/79.0.3945.130 Safari/537.36","0.5","","190","","<img src = 'img/A1-B1-L1-W1.jpg' width = '600'>","0","60","","","","",""
"","html-keyboard-response","123","281954","0.0-3.0-1.59","partial","Male","25","United States of America","","C482806","WA","freqGain","Mozilla/5.0 (Windows NT 6.1; Win64; x64) AppleWebKit/537.36 (KHTML, like Gecko) Chrome/79.0.3945.130 Safari/537.36","0.5","","null","","You successfully harvested honey! You earned <b>3 </b>points.","","60","null","3","54","",""
"","html-button-response","124","282233","0.0-3.0-0.60","partial","Male","25","United States of America","","C482806","WA","freqGain","Mozilla/5.0 (Windows NT 6.1; Win64; x64) AppleWebKit/537.36 (KHTML, like Gecko) Chrome/79.0.3945.130 Safari/537.36","0.5","","278","","<img src = 'img/A0-B1-L1-W0.jpg' width = '600'>","0","61","","","","",""
"","html-keyboard-response","125","284234","0.0-3.0-1.60","partial","Male","25","United States of America","","C482806","WA","freqGain","Mozilla/5.0 (Windows NT 6.1; Win64; x64) AppleWebKit/537.36 (KHTML, like Gecko) Chrome/79.0.3945.130 Safari/537.36","0.5","","null","","Ouch, you were stung! You lost <b>-1 </b>point.","","61","null","-1","53","",""
"","html-button-response","126","284417","0.0-3.0-0.61","partial","Male","25","United States of America","","C482806","WA","freqGain","Mozilla/5.0 (Windows NT 6.1; Win64; x64) AppleWebKit/537.36 (KHTML, like Gecko) Chrome/79.0.3945.130 Safari/537.36","0.5","","180","","<img src = 'img/A1-B1-L1-W0.jpg' width = '600'>","0","62","","","","",""
"","html-keyboard-response","127","286418","0.0-3.0-1.61","partial","Male","25","United States of America","","C482806","WA","freqGain","Mozilla/5.0 (Windows NT 6.1; Win64; x64) AppleWebKit/537.36 (KHTML, like Gecko) Chrome/79.0.3945.130 Safari/537.36","0.5","","null","","Ouch, you were stung! You lost <b>-1 </b>point.","","62","null","-1","52","",""
"","html-button-response","128","286769","0.0-3.0-0.62","partial","Male","25","United States of America","","C482806","WA","freqGain","Mozilla/5.0 (Windows NT 6.1; Win64; x64) AppleWebKit/537.36 (KHTML, like Gecko) Chrome/79.0.3945.130 Safari/537.36","0.5","","349","","<img src = 'img/A0-B0-L1-W1.jpg' width = '600'>","0","63","","","","",""
"","html-keyboard-response","129","288773","0.0-3.0-1.62","partial","Male","25","United States of America","","C482806","WA","freqGain","Mozilla/5.0 (Windows NT 6.1; Win64; x64) AppleWebKit/537.36 (KHTML, like Gecko) Chrome/79.0.3945.130 Safari/537.36","0.5","","null","","Ouch, you were stung! You lost <b>-1 </b>point.","","63","null","-1","51","",""
"","html-button-response","130","289139","0.0-3.0-0.63","partial","Male","25","United States of America","","C482806","WA","freqGain","Mozilla/5.0 (Windows NT 6.1; Win64; x64) AppleWebKit/537.36 (KHTML, like Gecko) Chrome/79.0.3945.130 Safari/537.36","0.5","","366","","<img src = 'img/A0-B0-L0-W1.jpg' width = '600'>","0","64","","","","",""
"","html-keyboard-response","131","291141","0.0-3.0-1.63","partial","Male","25","United States of America","","C482806","WA","freqGain","Mozilla/5.0 (Windows NT 6.1; Win64; x64) AppleWebKit/537.36 (KHTML, like Gecko) Chrome/79.0.3945.130 Safari/537.36","0.5","","null","","Ouch, you were stung! You lost <b>-1 </b>point.","","64","null","-1","50","",""
"","html-button-response","132","291699","0.0-3.0-0.64","partial","Male","25","United States of America","","C482806","WA","freqGain","Mozilla/5.0 (Windows NT 6.1; Win64; x64) AppleWebKit/537.36 (KHTML, like Gecko) Chrome/79.0.3945.130 Safari/537.36","0.5","","558","","<img src = 'img/A0-B1-L0-W1.jpg' width = '600'>","0","65","","","","",""
"","html-keyboard-response","133","293700","0.0-3.0-1.64","partial","Male","25","United States of America","","C482806","WA","freqGain","Mozilla/5.0 (Windows NT 6.1; Win64; x64) AppleWebKit/537.36 (KHTML, like Gecko) Chrome/79.0.3945.130 Safari/537.36","0.5","","null","","Ouch, you were stung! You lost <b>-1 </b>point.","","65","null","-1","49","",""
"","html-button-response","134","294123","0.0-3.0-0.65","partial","Male","25","United States of America","","C482806","WA","freqGain","Mozilla/5.0 (Windows NT 6.1; Win64; x64) AppleWebKit/537.36 (KHTML, like Gecko) Chrome/79.0.3945.130 Safari/537.36","0.5","","422","","<img src = 'img/A0-B1-L1-W0.jpg' width = '600'>","0","66","","","","",""
"","html-keyboard-response","135","296124","0.0-3.0-1.65","partial","Male","25","United States of America","","C482806","WA","freqGain","Mozilla/5.0 (Windows NT 6.1; Win64; x64) AppleWebKit/537.36 (KHTML, like Gecko) Chrome/79.0.3945.130 Safari/537.36","0.5","","null","","Ouch, you were stung! You lost <b>-1 </b>point.","","66","null","-1","48","",""
"","html-button-response","136","296660","0.0-3.0-0.66","partial","Male","25","United States of America","","C482806","WA","freqGain","Mozilla/5.0 (Windows NT 6.1; Win64; x64) AppleWebKit/537.36 (KHTML, like Gecko) Chrome/79.0.3945.130 Safari/537.36","0.5","","535","","<img src = 'img/A1-B0-L0-W1.jpg' width = '600'>","0","67","","","","",""
"","html-keyboard-response","137","298661","0.0-3.0-1.66","partial","Male","25","United States of America","","C482806","WA","freqGain","Mozilla/5.0 (Windows NT 6.1; Win64; x64) AppleWebKit/537.36 (KHTML, like Gecko) Chrome/79.0.3945.130 Safari/537.36","0.5","","null","","You successfully harvested honey! You earned <b>3 </b>points.","","67","null","3","51","",""
"","html-button-response","138","298979","0.0-3.0-0.67","partial","Male","25","United States of America","","C482806","WA","freqGain","Mozilla/5.0 (Windows NT 6.1; Win64; x64) AppleWebKit/537.36 (KHTML, like Gecko) Chrome/79.0.3945.130 Safari/537.36","0.5","","317","","<img src = 'img/A0-B0-L0-W1.jpg' width = '600'>","0","68","","","","",""
"","html-keyboard-response","139","300980","0.0-3.0-1.67","partial","Male","25","United States of America","","C482806","WA","freqGain","Mozilla/5.0 (Windows NT 6.1; Win64; x64) AppleWebKit/537.36 (KHTML, like Gecko) Chrome/79.0.3945.130 Safari/537.36","0.5","","null","","Ouch, you were stung! You lost <b>-1 </b>point.","","68","null","-1","50","",""
"","html-button-response","140","301315","0.0-3.0-0.68","partial","Male","25","United States of America","","C482806","WA","freqGain","Mozilla/5.0 (Windows NT 6.1; Win64; x64) AppleWebKit/537.36 (KHTML, like Gecko) Chrome/79.0.3945.130 Safari/537.36","0.5","","334","","<img src = 'img/A0-B0-L1-W1.jpg' width = '600'>","0","69","","","","",""
"","html-keyboard-response","141","303316","0.0-3.0-1.68","partial","Male","25","United States of America","","C482806","WA","freqGain","Mozilla/5.0 (Windows NT 6.1; Win64; x64) AppleWebKit/537.36 (KHTML, like Gecko) Chrome/79.0.3945.130 Safari/537.36","0.5","","null","","Ouch, you were stung! You lost <b>-1 </b>point.","","69","null","-1","49","",""
"","html-button-response","142","303603","0.0-3.0-0.69","partial","Male","25","United States of America","","C482806","WA","freqGain","Mozilla/5.0 (Windows NT 6.1; Win64; x64) AppleWebKit/537.36 (KHTML, like Gecko) Chrome/79.0.3945.130 Safari/537.36","0.5","","285","","<img src = 'img/A0-B0-L0-W0.jpg' width = '600'>","0","70","","","","",""
"","html-keyboard-response","143","305604","0.0-3.0-1.69","partial","Male","25","United States of America","","C482806","WA","freqGain","Mozilla/5.0 (Windows NT 6.1; Win64; x64) AppleWebKit/537.36 (KHTML, like Gecko) Chrome/79.0.3945.130 Safari/537.36","0.5","","null","","Ouch, you were stung! You lost <b>-1 </b>point.","","70","null","-1","48","",""
"","html-button-response","144","306195","0.0-3.0-0.70","partial","Male","25","United States of America","","C482806","WA","freqGain","Mozilla/5.0 (Windows NT 6.1; Win64; x64) AppleWebKit/537.36 (KHTML, like Gecko) Chrome/79.0.3945.130 Safari/537.36","0.5","","589","","<img src = 'img/A1-B1-L1-W0.jpg' width = '600'>","0","71","","","","",""
"","html-keyboard-response","145","308196","0.0-3.0-1.70","partial","Male","25","United States of America","","C482806","WA","freqGain","Mozilla/5.0 (Windows NT 6.1; Win64; x64) AppleWebKit/537.36 (KHTML, like Gecko) Chrome/79.0.3945.130 Safari/537.36","0.5","","null","","Ouch, you were stung! You lost <b>-1 </b>point.","","71","null","-1","47","",""
"","html-button-response","146","308642","0.0-3.0-0.71","partial","Male","25","United States of America","","C482806","WA","freqGain","Mozilla/5.0 (Windows NT 6.1; Win64; x64) AppleWebKit/537.36 (KHTML, like Gecko) Chrome/79.0.3945.130 Safari/537.36","0.5","","445","","<img src = 'img/A1-B1-L1-W1.jpg' width = '600'>","0","72","","","","",""
"","html-keyboard-response","147","310644","0.0-3.0-1.71","partial","Male","25","United States of America","","C482806","WA","freqGain","Mozilla/5.0 (Windows NT 6.1; Win64; x64) AppleWebKit/537.36 (KHTML, like Gecko) Chrome/79.0.3945.130 Safari/537.36","0.5","","null","","You successfully harvested honey! You earned <b>3 </b>points.","","72","null","3","50","",""
"","html-button-response","148","310786","0.0-3.0-0.72","partial","Male","25","United States of America","","C482806","WA","freqGain","Mozilla/5.0 (Windows NT 6.1; Win64; x64) AppleWebKit/537.36 (KHTML, like Gecko) Chrome/79.0.3945.130 Safari/537.36","0.5","","142","","<img src = 'img/A1-B0-L0-W0.jpg' width = '600'>","0","73","","","","",""
"","html-keyboard-response","149","312787","0.0-3.0-1.72","partial","Male","25","United States of America","","C482806","WA","freqGain","Mozilla/5.0 (Windows NT 6.1; Win64; x64) AppleWebKit/537.36 (KHTML, like Gecko) Chrome/79.0.3945.130 Safari/537.36","0.5","","null","","Ouch, you were stung! You lost <b>-1 </b>point.","","73","null","-1","49","",""
"","html-button-response","150","313043","0.0-3.0-0.73","partial","Male","25","United States of America","","C482806","WA","freqGain","Mozilla/5.0 (Windows NT 6.1; Win64; x64) AppleWebKit/537.36 (KHTML, like Gecko) Chrome/79.0.3945.130 Safari/537.36","0.5","","254","","<img src = 'img/A1-B1-L0-W1.jpg' width = '600'>","0","74","","","","",""
"","html-keyboard-response","151","315043","0.0-3.0-1.73","partial","Male","25","United States of America","","C482806","WA","freqGain","Mozilla/5.0 (Windows NT 6.1; Win64; x64) AppleWebKit/537.36 (KHTML, like Gecko) Chrome/79.0.3945.130 Safari/537.36","0.5","","null","","You successfully harvested honey! You earned <b>3 </b>points.","","74","null","3","52","",""
"","html-button-response","152","315426","0.0-3.0-0.74","partial","Male","25","United States of America","","C482806","WA","freqGain","Mozilla/5.0 (Windows NT 6.1; Win64; x64) AppleWebKit/537.36 (KHTML, like Gecko) Chrome/79.0.3945.130 Safari/537.36","0.5","","382","","<img src = 'img/A0-B1-L1-W1.jpg' width = '600'>","0","75","","","","",""
"","html-keyboard-response","153","317427","0.0-3.0-1.74","partial","Male","25","United States of America","","C482806","WA","freqGain","Mozilla/5.0 (Windows NT 6.1; Win64; x64) AppleWebKit/537.36 (KHTML, like Gecko) Chrome/79.0.3945.130 Safari/537.36","0.5","","null","","Ouch, you were stung! You lost <b>-1 </b>point.","","75","null","-1","51","",""
"","html-button-response","154","317730","0.0-3.0-0.75","partial","Male","25","United States of America","","C482806","WA","freqGain","Mozilla/5.0 (Windows NT 6.1; Win64; x64) AppleWebKit/537.36 (KHTML, like Gecko) Chrome/79.0.3945.130 Safari/537.36","0.5","","302","","<img src = 'img/A0-B1-L0-W0.jpg' width = '600'>","0","76","","","","",""
"","html-keyboard-response","155","319731","0.0-3.0-1.75","partial","Male","25","United States of America","","C482806","WA","freqGain","Mozilla/5.0 (Windows NT 6.1; Win64; x64) AppleWebKit/537.36 (KHTML, like Gecko) Chrome/79.0.3945.130 Safari/537.36","0.5","","null","","Ouch, you were stung! You lost <b>-1 </b>point.","","76","null","-1","50","",""
"","html-button-response","156","320114","0.0-3.0-0.76","partial","Male","25","United States of America","","C482806","WA","freqGain","Mozilla/5.0 (Windows NT 6.1; Win64; x64) AppleWebKit/537.36 (KHTML, like Gecko) Chrome/79.0.3945.130 Safari/537.36","0.5","","382","","<img src = 'img/A1-B1-L0-W0.jpg' width = '600'>","0","77","","","","",""
"","html-keyboard-response","157","322115","0.0-3.0-1.76","partial","Male","25","United States of America","","C482806","WA","freqGain","Mozilla/5.0 (Windows NT 6.1; Win64; x64) AppleWebKit/537.36 (KHTML, like Gecko) Chrome/79.0.3945.130 Safari/537.36","0.5","","null","","Ouch, you were stung! You lost <b>-1 </b>point.","","77","null","-1","49","",""
"","html-button-response","158","322450","0.0-3.0-0.77","partial","Male","25","United States of America","","C482806","WA","freqGain","Mozilla/5.0 (Windows NT 6.1; Win64; x64) AppleWebKit/537.36 (KHTML, like Gecko) Chrome/79.0.3945.130 Safari/537.36","0.5","","333","","<img src = 'img/A1-B0-L1-W1.jpg' width = '600'>","0","78","","","","",""
"","html-keyboard-response","159","324451","0.0-3.0-1.77","partial","Male","25","United States of America","","C482806","WA","freqGain","Mozilla/5.0 (Windows NT 6.1; Win64; x64) AppleWebKit/537.36 (KHTML, like Gecko) Chrome/79.0.3945.130 Safari/537.36","0.5","","null","","You successfully harvested honey! You earned <b>3 </b>points.","","78","null","3","52","",""
"","html-button-response","160","324690","0.0-3.0-0.78","partial","Male","25","United States of America","","C482806","WA","freqGain","Mozilla/5.0 (Windows NT 6.1; Win64; x64) AppleWebKit/537.36 (KHTML, like Gecko) Chrome/79.0.3945.130 Safari/537.36","0.5","","237","","<img src = 'img/A0-B0-L1-W0.jpg' width = '600'>","0","79","","","","",""
"","html-keyboard-response","161","326691","0.0-3.0-1.78","partial","Male","25","United States of America","","C482806","WA","freqGain","Mozilla/5.0 (Windows NT 6.1; Win64; x64) AppleWebKit/537.36 (KHTML, like Gecko) Chrome/79.0.3945.130 Safari/537.36","0.5","","null","","Ouch, you were stung! You lost <b>-1 </b>point.","","79","null","-1","51","",""
"","html-button-response","162","328162","0.0-3.0-0.79","partial","Male","25","United States of America","","C482806","WA","freqGain","Mozilla/5.0 (Windows NT 6.1; Win64; x64) AppleWebKit/537.36 (KHTML, like Gecko) Chrome/79.0.3945.130 Safari/537.36","0.5","","1469","","<img src = 'img/A1-B0-L1-W0.jpg' width = '600'>","0","80","","","","",""
"","html-keyboard-response","163","330163","0.0-3.0-1.79","partial","Male","25","United States of America","","C482806","WA","freqGain","Mozilla/5.0 (Windows NT 6.1; Win64; x64) AppleWebKit/537.36 (KHTML, like Gecko) Chrome/79.0.3945.130 Safari/537.36","0.5","","null","","Ouch, you were stung! You lost <b>-1 </b>point.","","80","null","-1","50","",""
"","html-button-response","164","330441","0.0-3.0-0.80","partial","Male","25","United States of America","","C482806","WA","freqGain","Mozilla/5.0 (Windows NT 6.1; Win64; x64) AppleWebKit/537.36 (KHTML, like Gecko) Chrome/79.0.3945.130 Safari/537.36","0.5","","278","","<img src = 'img/A1-B1-L1-W0.jpg' width = '600'>","0","81","","","","",""
"","html-keyboard-response","165","332443","0.0-3.0-1.80","partial","Male","25","United States of America","","C482806","WA","freqGain","Mozilla/5.0 (Windows NT 6.1; Win64; x64) AppleWebKit/537.36 (KHTML, like Gecko) Chrome/79.0.3945.130 Safari/537.36","0.5","","null","","Ouch, you were stung! You lost <b>-1 </b>point.","","81","null","-1","49","",""
"","html-button-response","166","332665","0.0-3.0-0.81","partial","Male","25","United States of America","","C482806","WA","freqGain","Mozilla/5.0 (Windows NT 6.1; Win64; x64) AppleWebKit/537.36 (KHTML, like Gecko) Chrome/79.0.3945.130 Safari/537.36","0.5","","222","","<img src = 'img/A1-B1-L0-W1.jpg' width = '600'>","0","82","","","","",""
"","html-keyboard-response","167","334666","0.0-3.0-1.81","partial","Male","25","United States of America","","C482806","WA","freqGain","Mozilla/5.0 (Windows NT 6.1; Win64; x64) AppleWebKit/537.36 (KHTML, like Gecko) Chrome/79.0.3945.130 Safari/537.36","0.5","","null","","You successfully harvested honey! You earned <b>3 </b>points.","","82","null","3","52","",""
"","html-button-response","168","334825","0.0-3.0-0.82","partial","Male","25","United States of America","","C482806","WA","freqGain","Mozilla/5.0 (Windows NT 6.1; Win64; x64) AppleWebKit/537.36 (KHTML, like Gecko) Chrome/79.0.3945.130 Safari/537.36","0.5","","158","","<img src = 'img/A0-B0-L0-W0.jpg' width = '600'>","0","83","","","","",""
"","html-keyboard-response","169","336826","0.0-3.0-1.82","partial","Male","25","United States of America","","C482806","WA","freqGain","Mozilla/5.0 (Windows NT 6.1; Win64; x64) AppleWebKit/537.36 (KHTML, like Gecko) Chrome/79.0.3945.130 Safari/537.36","0.5","","null","","Ouch, you were stung! You lost <b>-1 </b>point.","","83","null","-1","51","",""
"","html-button-response","170","337281","0.0-3.0-0.83","partial","Male","25","United States of America","","C482806","WA","freqGain","Mozilla/5.0 (Windows NT 6.1; Win64; x64) AppleWebKit/537.36 (KHTML, like Gecko) Chrome/79.0.3945.130 Safari/537.36","0.5","","454","","<img src = 'img/A1-B0-L0-W0.jpg' width = '600'>","0","84","","","","",""
"","html-keyboard-response","171","339282","0.0-3.0-1.83","partial","Male","25","United States of America","","C482806","WA","freqGain","Mozilla/5.0 (Windows NT 6.1; Win64; x64) AppleWebKit/537.36 (KHTML, like Gecko) Chrome/79.0.3945.130 Safari/537.36","0.5","","null","","Ouch, you were stung! You lost <b>-1 </b>point.","","84","null","-1","50","",""
"","html-button-response","172","339905","0.0-3.0-0.84","partial","Male","25","United States of America","","C482806","WA","freqGain","Mozilla/5.0 (Windows NT 6.1; Win64; x64) AppleWebKit/537.36 (KHTML, like Gecko) Chrome/79.0.3945.130 Safari/537.36","0.5","","622","","<img src = 'img/A1-B0-L0-W1.jpg' width = '600'>","0","85","","","","",""
"","html-keyboard-response","173","341906","0.0-3.0-1.84","partial","Male","25","United States of America","","C482806","WA","freqGain","Mozilla/5.0 (Windows NT 6.1; Win64; x64) AppleWebKit/537.36 (KHTML, like Gecko) Chrome/79.0.3945.130 Safari/537.36","0.5","","null","","You successfully harvested honey! You earned <b>3 </b>points.","","85","null","3","53","",""
"","html-button-response","174","342049","0.0-3.0-0.85","partial","Male","25","United States of America","","C482806","WA","freqGain","Mozilla/5.0 (Windows NT 6.1; Win64; x64) AppleWebKit/537.36 (KHTML, like Gecko) Chrome/79.0.3945.130 Safari/537.36","0.5","","141","","<img src = 'img/A0-B0-L0-W1.jpg' width = '600'>","0","86","","","","",""
"","html-keyboard-response","175","344050","0.0-3.0-1.85","partial","Male","25","United States of America","","C482806","WA","freqGain","Mozilla/5.0 (Windows NT 6.1; Win64; x64) AppleWebKit/537.36 (KHTML, like Gecko) Chrome/79.0.3945.130 Safari/537.36","0.5","","null","","Ouch, you were stung! You lost <b>-1 </b>point.","","86","null","-1","52","",""
"","html-button-response","176","344513","0.0-3.0-0.86","partial","Male","25","United States of America","","C482806","WA","freqGain","Mozilla/5.0 (Windows NT 6.1; Win64; x64) AppleWebKit/537.36 (KHTML, like Gecko) Chrome/79.0.3945.130 Safari/537.36","0.5","","461","","<img src = 'img/A1-B0-L1-W0.jpg' width = '600'>","0","87","","","","",""
"","html-keyboard-response","177","346514","0.0-3.0-1.86","partial","Male","25","United States of America","","C482806","WA","freqGain","Mozilla/5.0 (Windows NT 6.1; Win64; x64) AppleWebKit/537.36 (KHTML, like Gecko) Chrome/79.0.3945.130 Safari/537.36","0.5","","null","","Ouch, you were stung! You lost <b>-1 </b>point.","","87","null","-1","51","",""
"","html-button-response","178","346745","0.0-3.0-0.87","partial","Male","25","United States of America","","C482806","WA","freqGain","Mozilla/5.0 (Windows NT 6.1; Win64; x64) AppleWebKit/537.36 (KHTML, like Gecko) Chrome/79.0.3945.130 Safari/537.36","0.5","","229","","<img src = 'img/A0-B1-L0-W0.jpg' width = '600'>","0","88","","","","",""
"","html-keyboard-response","179","348746","0.0-3.0-1.87","partial","Male","25","United States of America","","C482806","WA","freqGain","Mozilla/5.0 (Windows NT 6.1; Win64; x64) AppleWebKit/537.36 (KHTML, like Gecko) Chrome/79.0.3945.130 Safari/537.36","0.5","","null","","Ouch, you were stung! You lost <b>-1 </b>point.","","88","null","-1","50","",""
"","html-button-response","180","349259","0.0-3.0-0.88","partial","Male","25","United States of America","","C482806","WA","freqGain","Mozilla/5.0 (Windows NT 6.1; Win64; x64) AppleWebKit/537.36 (KHTML, like Gecko) Chrome/79.0.3945.130 Safari/537.36","0.5","","512","","<img src = 'img/A0-B1-L1-W0.jpg' width = '600'>","0","89","","","","",""
"","html-keyboard-response","181","351260","0.0-3.0-1.88","partial","Male","25","United States of America","","C482806","WA","freqGain","Mozilla/5.0 (Windows NT 6.1; Win64; x64) AppleWebKit/537.36 (KHTML, like Gecko) Chrome/79.0.3945.130 Safari/537.36","0.5","","null","","Ouch, you were stung! You lost <b>-1 </b>point.","","89","null","-1","49","",""
"","html-button-response","182","351451","0.0-3.0-0.89","partial","Male","25","United States of America","","C482806","WA","freqGain","Mozilla/5.0 (Windows NT 6.1; Win64; x64) AppleWebKit/537.36 (KHTML, like Gecko) Chrome/79.0.3945.130 Safari/537.36","0.5","","190","","<img src = 'img/A1-B0-L1-W1.jpg' width = '600'>","0","90","","","","",""
"","html-keyboard-response","183","353452","0.0-3.0-1.89","partial","Male","25","United States of America","","C482806","WA","freqGain","Mozilla/5.0 (Windows NT 6.1; Win64; x64) AppleWebKit/537.36 (KHTML, like Gecko) Chrome/79.0.3945.130 Safari/537.36","0.5","","null","","You successfully harvested honey! You earned <b>3 </b>points.","","90","null","3","52","",""
"","html-button-response","184","353643","0.0-3.0-0.90","partial","Male","25","United States of America","","C482806","WA","freqGain","Mozilla/5.0 (Windows NT 6.1; Win64; x64) AppleWebKit/537.36 (KHTML, like Gecko) Chrome/79.0.3945.130 Safari/537.36","0.5","","189","","<img src = 'img/A0-B0-L1-W0.jpg' width = '600'>","0","91","","","","",""
"","html-keyboard-response","185","355644","0.0-3.0-1.90","partial","Male","25","United States of America","","C482806","WA","freqGain","Mozilla/5.0 (Windows NT 6.1; Win64; x64) AppleWebKit/537.36 (KHTML, like Gecko) Chrome/79.0.3945.130 Safari/537.36","0.5","","null","","Ouch, you were stung! You lost <b>-1 </b>point.","","91","null","-1","51","",""
"","html-button-response","186","355947","0.0-3.0-0.91","partial","Male","25","United States of America","","C482806","WA","freqGain","Mozilla/5.0 (Windows NT 6.1; Win64; x64) AppleWebKit/537.36 (KHTML, like Gecko) Chrome/79.0.3945.130 Safari/537.36","0.5","","301","","<img src = 'img/A0-B1-L0-W1.jpg' width = '600'>","0","92","","","","",""
"","html-keyboard-response","187","357948","0.0-3.0-1.91","partial","Male","25","United States of America","","C482806","WA","freqGain","Mozilla/5.0 (Windows NT 6.1; Win64; x64) AppleWebKit/537.36 (KHTML, like Gecko) Chrome/79.0.3945.130 Safari/537.36","0.5","","null","","Ouch, you were stung! You lost <b>-1 </b>point.","","92","null","-1","50","",""
"","html-button-response","188","358163","0.0-3.0-0.92","partial","Male","25","United States of America","","C482806","WA","freqGain","Mozilla/5.0 (Windows NT 6.1; Win64; x64) AppleWebKit/537.36 (KHTML, like Gecko) Chrome/79.0.3945.130 Safari/537.36","0.5","","213","","<img src = 'img/A0-B1-L1-W1.jpg' width = '600'>","0","93","","","","",""
"","html-keyboard-response","189","360164","0.0-3.0-1.92","partial","Male","25","United States of America","","C482806","WA","freqGain","Mozilla/5.0 (Windows NT 6.1; Win64; x64) AppleWebKit/537.36 (KHTML, like Gecko) Chrome/79.0.3945.130 Safari/537.36","0.5","","null","","Ouch, you were stung! You lost <b>-1 </b>point.","","93","null","-1","49","",""
"","html-button-response","190","360435","0.0-3.0-0.93","partial","Male","25","United States of America","","C482806","WA","freqGain","Mozilla/5.0 (Windows NT 6.1; Win64; x64) AppleWebKit/537.36 (KHTML, like Gecko) Chrome/79.0.3945.130 Safari/537.36","0.5","","270","","<img src = 'img/A1-B1-L1-W1.jpg' width = '600'>","0","94","","","","",""
"","html-keyboard-response","191","362436","0.0-3.0-1.93","partial","Male","25","United States of America","","C482806","WA","freqGain","Mozilla/5.0 (Windows NT 6.1; Win64; x64) AppleWebKit/537.36 (KHTML, like Gecko) Chrome/79.0.3945.130 Safari/537.36","0.5","","null","","You successfully harvested honey! You earned <b>3 </b>points.","","94","null","3","52","",""
"","html-button-response","192","362674","0.0-3.0-0.94","partial","Male","25","United States of America","","C482806","WA","freqGain","Mozilla/5.0 (Windows NT 6.1; Win64; x64) AppleWebKit/537.36 (KHTML, like Gecko) Chrome/79.0.3945.130 Safari/537.36","0.5","","238","","<img src = 'img/A0-B0-L1-W1.jpg' width = '600'>","0","95","","","","",""
"","html-keyboard-response","193","364675","0.0-3.0-1.94","partial","Male","25","United States of America","","C482806","WA","freqGain","Mozilla/5.0 (Windows NT 6.1; Win64; x64) AppleWebKit/537.36 (KHTML, like Gecko) Chrome/79.0.3945.130 Safari/537.36","0.5","","null","","Ouch, you were stung! You lost <b>-1 </b>point.","","95","null","-1","51","",""
"","html-button-response","194","364914","0.0-3.0-0.95","partial","Male","25","United States of America","","C482806","WA","freqGain","Mozilla/5.0 (Windows NT 6.1; Win64; x64) AppleWebKit/537.36 (KHTML, like Gecko) Chrome/79.0.3945.130 Safari/537.36","0.5","","238","","<img src = 'img/A1-B1-L0-W0.jpg' width = '600'>","0","96","","","","",""
"","html-keyboard-response","195","366915","0.0-3.0-1.95","partial","Male","25","United States of America","","C482806","WA","freqGain","Mozilla/5.0 (Windows NT 6.1; Win64; x64) AppleWebKit/537.36 (KHTML, like Gecko) Chrome/79.0.3945.130 Safari/537.36","0.5","","null","","Ouch, you were stung! You lost <b>-1 </b>point.","","96","null","-1","50","",""
"","html-button-response","196","367314","0.0-3.0-0.96","partial","Male","25","United States of America","","C482806","WA","freqGain","Mozilla/5.0 (Windows NT 6.1; Win64; x64) AppleWebKit/537.36 (KHTML, like Gecko) Chrome/79.0.3945.130 Safari/537.36","0.5","","398","","<img src = 'img/A1-B0-L1-W0.jpg' width = '600'>","0","97","","","","",""
"","html-keyboard-response","197","369315","0.0-3.0-1.96","partial","Male","25","United States of America","","C482806","WA","freqGain","Mozilla/5.0 (Windows NT 6.1; Win64; x64) AppleWebKit/537.36 (KHTML, like Gecko) Chrome/79.0.3945.130 Safari/537.36","0.5","","null","","Ouch, you were stung! You lost <b>-1 </b>point.","","97","null","-1","49","",""
"","html-button-response","198","369666","0.0-3.0-0.97","partial","Male","25","United States of America","","C482806","WA","freqGain","Mozilla/5.0 (Windows NT 6.1; Win64; x64) AppleWebKit/537.36 (KHTML, like Gecko) Chrome/79.0.3945.130 Safari/537.36","0.5","","350","","<img src = 'img/A0-B0-L1-W1.jpg' width = '600'>","0","98","","","","",""
"","html-keyboard-response","199","371667","0.0-3.0-1.97","partial","Male","25","United States of America","","C482806","WA","freqGain","Mozilla/5.0 (Windows NT 6.1; Win64; x64) AppleWebKit/537.36 (KHTML, like Gecko) Chrome/79.0.3945.130 Safari/537.36","0.5","","null","","Ouch, you were stung! You lost <b>-1 </b>point.","","98","null","-1","48","",""
"","html-button-response","200","371946","0.0-3.0-0.98","partial","Male","25","United States of America","","C482806","WA","freqGain","Mozilla/5.0 (Windows NT 6.1; Win64; x64) AppleWebKit/537.36 (KHTML, like Gecko) Chrome/79.0.3945.130 Safari/537.36","0.5","","278","","<img src = 'img/A1-B1-L1-W1.jpg' width = '600'>","0","99","","","","",""
"","html-keyboard-response","201","373947","0.0-3.0-1.98","partial","Male","25","United States of America","","C482806","WA","freqGain","Mozilla/5.0 (Windows NT 6.1; Win64; x64) AppleWebKit/537.36 (KHTML, like Gecko) Chrome/79.0.3945.130 Safari/537.36","0.5","","null","","You successfully harvested honey! You earned <b>3 </b>points.","","99","null","3","51","",""
"","html-button-response","202","374194","0.0-3.0-0.99","partial","Male","25","United States of America","","C482806","WA","freqGain","Mozilla/5.0 (Windows NT 6.1; Win64; x64) AppleWebKit/537.36 (KHTML, like Gecko) Chrome/79.0.3945.130 Safari/537.36","0.5","","246","","<img src = 'img/A0-B1-L1-W1.jpg' width = '600'>","0","100","","","","",""
"","html-keyboard-response","203","376195","0.0-3.0-1.99","partial","Male","25","United States of America","","C482806","WA","freqGain","Mozilla/5.0 (Windows NT 6.1; Win64; x64) AppleWebKit/537.36 (KHTML, like Gecko) Chrome/79.0.3945.130 Safari/537.36","0.5","","null","","Ouch, you were stung! You lost <b>-1 </b>point.","","100","null","-1","50","",""
"","html-button-response","204","377858","0.0-3.0-0.100","partial","Male","25","United States of America","","C482806","WA","freqGain","Mozilla/5.0 (Windows NT 6.1; Win64; x64) AppleWebKit/537.36 (KHTML, like Gecko) Chrome/79.0.3945.130 Safari/537.36","0.5","","1661","","<img src = 'img/A0-B1-L0-W0.jpg' width = '600'>","0","101","","","","",""
"","html-keyboard-response","205","379859","0.0-3.0-1.100","partial","Male","25","United States of America","","C482806","WA","freqGain","Mozilla/5.0 (Windows NT 6.1; Win64; x64) AppleWebKit/537.36 (KHTML, like Gecko) Chrome/79.0.3945.130 Safari/537.36","0.5","","null","","Ouch, you were stung! You lost <b>-1 </b>point.","","101","null","-1","49","",""
"","html-button-response","206","383481","0.0-3.0-0.101","partial","Male","25","United States of America","","C482806","WA","freqGain","Mozilla/5.0 (Windows NT 6.1; Win64; x64) AppleWebKit/537.36 (KHTML, like Gecko) Chrome/79.0.3945.130 Safari/537.36","0.5","","3622","","<img src = 'img/A0-B0-L0-W0.jpg' width = '600'>","0","102","","","","",""
"","html-keyboard-response","207","385482","0.0-3.0-1.101","partial","Male","25","United States of America","","C482806","WA","freqGain","Mozilla/5.0 (Windows NT 6.1; Win64; x64) AppleWebKit/537.36 (KHTML, like Gecko) Chrome/79.0.3945.130 Safari/537.36","0.5","","null","","Ouch, you were stung! You lost <b>-1 </b>point.","","102","null","-1","48","",""
"","html-button-response","208","385993","0.0-3.0-0.102","partial","Male","25","United States of America","","C482806","WA","freqGain","Mozilla/5.0 (Windows NT 6.1; Win64; x64) AppleWebKit/537.36 (KHTML, like Gecko) Chrome/79.0.3945.130 Safari/537.36","0.5","","510","","<img src = 'img/A1-B0-L0-W1.jpg' width = '600'>","0","103","","","","",""
"","html-keyboard-response","209","387995","0.0-3.0-1.102","partial","Male","25","United States of America","","C482806","WA","freqGain","Mozilla/5.0 (Windows NT 6.1; Win64; x64) AppleWebKit/537.36 (KHTML, like Gecko) Chrome/79.0.3945.130 Safari/537.36","0.5","","null","","You successfully harvested honey! You earned <b>3 </b>points.","","103","null","3","51","",""
"","html-button-response","210","389497","0.0-3.0-0.103","partial","Male","25","United States of America","","C482806","WA","freqGain","Mozilla/5.0 (Windows NT 6.1; Win64; x64) AppleWebKit/537.36 (KHTML, like Gecko) Chrome/79.0.3945.130 Safari/537.36","0.5","","1501","","<img src = 'img/A1-B0-L0-W0.jpg' width = '600'>","0","104","","","","",""
"","html-keyboard-response","211","391498","0.0-3.0-1.103","partial","Male","25","United States of America","","C482806","WA","freqGain","Mozilla/5.0 (Windows NT 6.1; Win64; x64) AppleWebKit/537.36 (KHTML, like Gecko) Chrome/79.0.3945.130 Safari/537.36","0.5","","null","","Ouch, you were stung! You lost <b>-1 </b>point.","","104","null","-1","50","",""
"","html-button-response","212","393937","0.0-3.0-0.104","partial","Male","25","United States of America","","C482806","WA","freqGain","Mozilla/5.0 (Windows NT 6.1; Win64; x64) AppleWebKit/537.36 (KHTML, like Gecko) Chrome/79.0.3945.130 Safari/537.36","0.5","","2437","","<img src = 'img/A1-B1-L0-W0.jpg' width = '600'>","0","105","","","","",""
"","html-keyboard-response","213","395938","0.0-3.0-1.104","partial","Male","25","United States of America","","C482806","WA","freqGain","Mozilla/5.0 (Windows NT 6.1; Win64; x64) AppleWebKit/537.36 (KHTML, like Gecko) Chrome/79.0.3945.130 Safari/537.36","0.5","","null","","Ouch, you were stung! You lost <b>-1 </b>point.","","105","null","-1","49","",""
"","html-button-response","214","396153","0.0-3.0-0.105","partial","Male","25","United States of America","","C482806","WA","freqGain","Mozilla/5.0 (Windows NT 6.1; Win64; x64) AppleWebKit/537.36 (KHTML, like Gecko) Chrome/79.0.3945.130 Safari/537.36","0.5","","213","","<img src = 'img/A0-B0-L1-W0.jpg' width = '600'>","0","106","","","","",""
"","html-keyboard-response","215","398154","0.0-3.0-1.105","partial","Male","25","United States of America","","C482806","WA","freqGain","Mozilla/5.0 (Windows NT 6.1; Win64; x64) AppleWebKit/537.36 (KHTML, like Gecko) Chrome/79.0.3945.130 Safari/537.36","0.5","","null","","Ouch, you were stung! You lost <b>-1 </b>point.","","106","null","-1","48","",""
"","html-button-response","216","399081","0.0-3.0-0.106","partial","Male","25","United States of America","","C482806","WA","freqGain","Mozilla/5.0 (Windows NT 6.1; Win64; x64) AppleWebKit/537.36 (KHTML, like Gecko) Chrome/79.0.3945.130 Safari/537.36","0.5","","925","","<img src = 'img/A0-B1-L1-W0.jpg' width = '600'>","0","107","","","","",""
"","html-keyboard-response","217","401082","0.0-3.0-1.106","partial","Male","25","United States of America","","C482806","WA","freqGain","Mozilla/5.0 (Windows NT 6.1; Win64; x64) AppleWebKit/537.36 (KHTML, like Gecko) Chrome/79.0.3945.130 Safari/537.36","0.5","","null","","Ouch, you were stung! You lost <b>-1 </b>point.","","107","null","-1","47","",""
"","html-button-response","218","401864","0.0-3.0-0.107","partial","Male","25","United States of America","","C482806","WA","freqGain","Mozilla/5.0 (Windows NT 6.1; Win64; x64) AppleWebKit/537.36 (KHTML, like Gecko) Chrome/79.0.3945.130 Safari/537.36","0.5","","782","","<img src = 'img/A1-B1-L1-W0.jpg' width = '600'>","1","108","","","","",""
"","html-keyboard-response","219","403866","0.0-3.0-1.107","partial","Male","25","United States of America","","C482806","WA","freqGain","Mozilla/5.0 (Windows NT 6.1; Win64; x64) AppleWebKit/537.36 (KHTML, like Gecko) Chrome/79.0.3945.130 Safari/537.36","0.5","","null","","You avoided this hive. You earned <b>0 </b>points.","","108","null","0","47","",""
"","html-button-response","220","404049","0.0-3.0-0.108","partial","Male","25","United States of America","","C482806","WA","freqGain","Mozilla/5.0 (Windows NT 6.1; Win64; x64) AppleWebKit/537.36 (KHTML, like Gecko) Chrome/79.0.3945.130 Safari/537.36","0.5","","182","","<img src = 'img/A1-B1-L0-W1.jpg' width = '600'>","1","109","","","","",""
"","html-keyboard-response","221","406050","0.0-3.0-1.108","partial","Male","25","United States of America","","C482806","WA","freqGain","Mozilla/5.0 (Windows NT 6.1; Win64; x64) AppleWebKit/537.36 (KHTML, like Gecko) Chrome/79.0.3945.130 Safari/537.36","0.5","","null","","You avoided this hive. You earned <b>0 </b>points.","","109","null","0","47","",""
"","html-button-response","222","406256","0.0-3.0-0.109","partial","Male","25","United States of America","","C482806","WA","freqGain","Mozilla/5.0 (Windows NT 6.1; Win64; x64) AppleWebKit/537.36 (KHTML, like Gecko) Chrome/79.0.3945.130 Safari/537.36","0.5","","206","","<img src = 'img/A0-B1-L0-W1.jpg' width = '600'>","1","110","","","","",""
"","html-keyboard-response","223","408257","0.0-3.0-1.109","partial","Male","25","United States of America","","C482806","WA","freqGain","Mozilla/5.0 (Windows NT 6.1; Win64; x64) AppleWebKit/537.36 (KHTML, like Gecko) Chrome/79.0.3945.130 Safari/537.36","0.5","","null","","You avoided this hive. You earned <b>0 </b>points.","","110","null","0","47","",""
"","html-button-response","224","408939","0.0-3.0-0.110","partial","Male","25","United States of America","","C482806","WA","freqGain","Mozilla/5.0 (Windows NT 6.1; Win64; x64) AppleWebKit/537.36 (KHTML, like Gecko) Chrome/79.0.3945.130 Safari/537.36","0.5","","681","","<img src = 'img/A1-B0-L1-W1.jpg' width = '600'>","0","111","","","","",""
"","html-keyboard-response","225","410940","0.0-3.0-1.110","partial","Male","25","United States of America","","C482806","WA","freqGain","Mozilla/5.0 (Windows NT 6.1; Win64; x64) AppleWebKit/537.36 (KHTML, like Gecko) Chrome/79.0.3945.130 Safari/537.36","0.5","","null","","You successfully harvested honey! You earned <b>3 </b>points.","","111","null","3","50","",""
"","html-button-response","226","411115","0.0-3.0-0.111","partial","Male","25","United States of America","","C482806","WA","freqGain","Mozilla/5.0 (Windows NT 6.1; Win64; x64) AppleWebKit/537.36 (KHTML, like Gecko) Chrome/79.0.3945.130 Safari/537.36","0.5","","173","","<img src = 'img/A0-B0-L0-W1.jpg' width = '600'>","1","112","","","","",""
"","html-keyboard-response","227","413116","0.0-3.0-1.111","partial","Male","25","United States of America","","C482806","WA","freqGain","Mozilla/5.0 (Windows NT 6.1; Win64; x64) AppleWebKit/537.36 (KHTML, like Gecko) Chrome/79.0.3945.130 Safari/537.36","0.5","","null","","You avoided this hive. You earned <b>0 </b>points.","","112","null","0","50","",""
"","html-button-response","228","413347","0.0-3.0-0.112","partial","Male","25","United States of America","","C482806","WA","freqGain","Mozilla/5.0 (Windows NT 6.1; Win64; x64) AppleWebKit/537.36 (KHTML, like Gecko) Chrome/79.0.3945.130 Safari/537.36","0.5","","229","","<img src = 'img/A0-B1-L1-W0.jpg' width = '600'>","1","113","","","","",""
"","html-keyboard-response","229","415348","0.0-3.0-1.112","partial","Male","25","United States of America","","C482806","WA","freqGain","Mozilla/5.0 (Windows NT 6.1; Win64; x64) AppleWebKit/537.36 (KHTML, like Gecko) Chrome/79.0.3945.130 Safari/537.36","0.5","","null","","You avoided this hive. You earned <b>0 </b>points.","","113","null","0","50","",""
"","html-button-response","230","415554","0.0-3.0-0.113","partial","Male","25","United States of America","","C482806","WA","freqGain","Mozilla/5.0 (Windows NT 6.1; Win64; x64) AppleWebKit/537.36 (KHTML, like Gecko) Chrome/79.0.3945.130 Safari/537.36","0.5","","205","","<img src = 'img/A0-B1-L0-W1.jpg' width = '600'>","1","114","","","","",""
"","html-keyboard-response","231","417556","0.0-3.0-1.113","partial","Male","25","United States of America","","C482806","WA","freqGain","Mozilla/5.0 (Windows NT 6.1; Win64; x64) AppleWebKit/537.36 (KHTML, like Gecko) Chrome/79.0.3945.130 Safari/537.36","0.5","","null","","You avoided this hive. You earned <b>0 </b>points.","","114","null","0","50","",""
"","html-button-response","232","418298","0.0-3.0-0.114","partial","Male","25","United States of America","","C482806","WA","freqGain","Mozilla/5.0 (Windows NT 6.1; Win64; x64) AppleWebKit/537.36 (KHTML, like Gecko) Chrome/79.0.3945.130 Safari/537.36","0.5","","742","","<img src = 'img/A1-B1-L0-W1.jpg' width = '600'>","0","115","","","","",""
"","html-keyboard-response","233","420300","0.0-3.0-1.114","partial","Male","25","United States of America","","C482806","WA","freqGain","Mozilla/5.0 (Windows NT 6.1; Win64; x64) AppleWebKit/537.36 (KHTML, like Gecko) Chrome/79.0.3945.130 Safari/537.36","0.5","","null","","You successfully harvested honey! You earned <b>3 </b>points.","","115","null","3","53","",""
"","html-button-response","234","422674","0.0-3.0-0.115","partial","Male","25","United States of America","","C482806","WA","freqGain","Mozilla/5.0 (Windows NT 6.1; Win64; x64) AppleWebKit/537.36 (KHTML, like Gecko) Chrome/79.0.3945.130 Safari/537.36","0.5","","2373","","<img src = 'img/A0-B0-L1-W0.jpg' width = '600'>","0","116","","","","",""
"","html-keyboard-response","235","424676","0.0-3.0-1.115","partial","Male","25","United States of America","","C482806","WA","freqGain","Mozilla/5.0 (Windows NT 6.1; Win64; x64) AppleWebKit/537.36 (KHTML, like Gecko) Chrome/79.0.3945.130 Safari/537.36","0.5","","null","","Ouch, you were stung! You lost <b>-1 </b>point.","","116","null","-1","52","",""
"","html-button-response","236","424834","0.0-3.0-0.116","partial","Male","25","United States of America","","C482806","WA","freqGain","Mozilla/5.0 (Windows NT 6.1; Win64; x64) AppleWebKit/537.36 (KHTML, like Gecko) Chrome/79.0.3945.130 Safari/537.36","0.5","","158","","<img src = 'img/A1-B0-L1-W0.jpg' width = '600'>","0","117","","","","",""
"","html-keyboard-response","237","426835","0.0-3.0-1.116","partial","Male","25","United States of America","","C482806","WA","freqGain","Mozilla/5.0 (Windows NT 6.1; Win64; x64) AppleWebKit/537.36 (KHTML, like Gecko) Chrome/79.0.3945.130 Safari/537.36","0.5","","null","","Ouch, you were stung! You lost <b>-1 </b>point.","","117","null","-1","51","",""
"","html-button-response","238","427034","0.0-3.0-0.117","partial","Male","25","United States of America","","C482806","WA","freqGain","Mozilla/5.0 (Windows NT 6.1; Win64; x64) AppleWebKit/537.36 (KHTML, like Gecko) Chrome/79.0.3945.130 Safari/537.36","0.5","","198","","<img src = 'img/A1-B1-L0-W0.jpg' width = '600'>","0","118","","","","",""
"","html-keyboard-response","239","429035","0.0-3.0-1.117","partial","Male","25","United States of America","","C482806","WA","freqGain","Mozilla/5.0 (Windows NT 6.1; Win64; x64) AppleWebKit/537.36 (KHTML, like Gecko) Chrome/79.0.3945.130 Safari/537.36","0.5","","null","","Ouch, you were stung! You lost <b>-1 </b>point.","","118","null","-1","50","",""
"","html-button-response","240","429602","0.0-3.0-0.118","partial","Male","25","United States of America","","C482806","WA","freqGain","Mozilla/5.0 (Windows NT 6.1; Win64; x64) AppleWebKit/537.36 (KHTML, like Gecko) Chrome/79.0.3945.130 Safari/537.36","0.5","","566","","<img src = 'img/A1-B0-L0-W1.jpg' width = '600'>","0","119","","","","",""
"","html-keyboard-response","241","431603","0.0-3.0-1.118","partial","Male","25","United States of America","","C482806","WA","freqGain","Mozilla/5.0 (Windows NT 6.1; Win64; x64) AppleWebKit/537.36 (KHTML, like Gecko) Chrome/79.0.3945.130 Safari/537.36","0.5","","null","","You successfully harvested honey! You earned <b>3 </b>points.","","119","null","3","53","",""
"","html-button-response","242","431914","0.0-3.0-0.119","partial","Male","25","United States of America","","C482806","WA","freqGain","Mozilla/5.0 (Windows NT 6.1; Win64; x64) AppleWebKit/537.36 (KHTML, like Gecko) Chrome/79.0.3945.130 Safari/537.36","0.5","","308","","<img src = 'img/A0-B1-L0-W0.jpg' width = '600'>","1","120","","","","",""
"","html-keyboard-response","243","433915","0.0-3.0-1.119","partial","Male","25","United States of America","","C482806","WA","freqGain","Mozilla/5.0 (Windows NT 6.1; Win64; x64) AppleWebKit/537.36 (KHTML, like Gecko) Chrome/79.0.3945.130 Safari/537.36","0.5","","null","","You avoided this hive. You earned <b>0 </b>points.","","120","null","0","53","",""
"","html-button-response","244","434538","0.0-3.0-0.120","partial","Male","25","United States of America","","C482806","WA","freqGain","Mozilla/5.0 (Windows NT 6.1; Win64; x64) AppleWebKit/537.36 (KHTML, like Gecko) Chrome/79.0.3945.130 Safari/537.36","0.5","","621","","<img src = 'img/A1-B0-L0-W0.jpg' width = '600'>","1","121","","","","",""
"","html-keyboard-response","245","436539","0.0-3.0-1.120","partial","Male","25","United States of America","","C482806","WA","freqGain","Mozilla/5.0 (Windows NT 6.1; Win64; x64) AppleWebKit/537.36 (KHTML, like Gecko) Chrome/79.0.3945.130 Safari/537.36","0.5","","null","","You avoided this hive. You earned <b>0 </b>points.","","121","null","0","53","",""
"","html-button-response","246","437194","0.0-3.0-0.121","partial","Male","25","United States of America","","C482806","WA","freqGain","Mozilla/5.0 (Windows NT 6.1; Win64; x64) AppleWebKit/537.36 (KHTML, like Gecko) Chrome/79.0.3945.130 Safari/537.36","0.5","","653","","<img src = 'img/A1-B1-L1-W1.jpg' width = '600'>","1","122","","","","",""
"","html-keyboard-response","247","439195","0.0-3.0-1.121","partial","Male","25","United States of America","","C482806","WA","freqGain","Mozilla/5.0 (Windows NT 6.1; Win64; x64) AppleWebKit/537.36 (KHTML, like Gecko) Chrome/79.0.3945.130 Safari/537.36","0.5","","null","","You avoided this hive. You earned <b>0 </b>points.","","122","null","0","53","",""
"","html-button-response","248","439441","0.0-3.0-0.122","partial","Male","25","United States of America","","C482806","WA","freqGain","Mozilla/5.0 (Windows NT 6.1; Win64; x64) AppleWebKit/537.36 (KHTML, like Gecko) Chrome/79.0.3945.130 Safari/537.36","0.5","","246","","<img src = 'img/A0-B1-L1-W1.jpg' width = '600'>","0","123","","","","",""
"","html-keyboard-response","249","441443","0.0-3.0-1.122","partial","Male","25","United States of America","","C482806","WA","freqGain","Mozilla/5.0 (Windows NT 6.1; Win64; x64) AppleWebKit/537.36 (KHTML, like Gecko) Chrome/79.0.3945.130 Safari/537.36","0.5","","null","","Ouch, you were stung! You lost <b>-1 </b>point.","","123","null","-1","52","",""
"","html-button-response","250","441665","0.0-3.0-0.123","partial","Male","25","United States of America","","C482806","WA","freqGain","Mozilla/5.0 (Windows NT 6.1; Win64; x64) AppleWebKit/537.36 (KHTML, like Gecko) Chrome/79.0.3945.130 Safari/537.36","0.5","","221","","<img src = 'img/A1-B1-L1-W0.jpg' width = '600'>","1","124","","","","",""
"","html-keyboard-response","251","443667","0.0-3.0-1.123","partial","Male","25","United States of America","","C482806","WA","freqGain","Mozilla/5.0 (Windows NT 6.1; Win64; x64) AppleWebKit/537.36 (KHTML, like Gecko) Chrome/79.0.3945.130 Safari/537.36","0.5","","null","","You avoided this hive. You earned <b>0 </b>points.","","124","null","0","52","",""
"","html-button-response","252","443793","0.0-3.0-0.124","partial","Male","25","United States of America","","C482806","WA","freqGain","Mozilla/5.0 (Windows NT 6.1; Win64; x64) AppleWebKit/537.36 (KHTML, like Gecko) Chrome/79.0.3945.130 Safari/537.36","0.5","","126","","<img src = 'img/A0-B0-L1-W1.jpg' width = '600'>","0","125","","","","",""
"","html-keyboard-response","253","445794","0.0-3.0-1.124","partial","Male","25","United States of America","","C482806","WA","freqGain","Mozilla/5.0 (Windows NT 6.1; Win64; x64) AppleWebKit/537.36 (KHTML, like Gecko) Chrome/79.0.3945.130 Safari/537.36","0.5","","null","","Ouch, you were stung! You lost <b>-1 </b>point.","","125","null","-1","51","",""
"","html-button-response","254","446297","0.0-3.0-0.125","partial","Male","25","United States of America","","C482806","WA","freqGain","Mozilla/5.0 (Windows NT 6.1; Win64; x64) AppleWebKit/537.36 (KHTML, like Gecko) Chrome/79.0.3945.130 Safari/537.36","0.5","","502","","<img src = 'img/A0-B0-L0-W1.jpg' width = '600'>","0","126","","","","",""
"","html-keyboard-response","255","448298","0.0-3.0-1.125","partial","Male","25","United States of America","","C482806","WA","freqGain","Mozilla/5.0 (Windows NT 6.1; Win64; x64) AppleWebKit/537.36 (KHTML, like Gecko) Chrome/79.0.3945.130 Safari/537.36","0.5","","null","","Ouch, you were stung! You lost <b>-1 </b>point.","","126","null","-1","50","",""
"","html-button-response","256","448577","0.0-3.0-0.126","partial","Male","25","United States of America","","C482806","WA","freqGain","Mozilla/5.0 (Windows NT 6.1; Win64; x64) AppleWebKit/537.36 (KHTML, like Gecko) Chrome/79.0.3945.130 Safari/537.36","0.5","","278","","<img src = 'img/A0-B0-L0-W0.jpg' width = '600'>","0","127","","","","",""
"","html-keyboard-response","257","450578","0.0-3.0-1.126","partial","Male","25","United States of America","","C482806","WA","freqGain","Mozilla/5.0 (Windows NT 6.1; Win64; x64) AppleWebKit/537.36 (KHTML, like Gecko) Chrome/79.0.3945.130 Safari/537.36","0.5","","null","","Ouch, you were stung! You lost <b>-1 </b>point.","","127","null","-1","49","",""
"","html-button-response","258","451377","0.0-3.0-0.127","partial","Male","25","United States of America","","C482806","WA","freqGain","Mozilla/5.0 (Windows NT 6.1; Win64; x64) AppleWebKit/537.36 (KHTML, like Gecko) Chrome/79.0.3945.130 Safari/537.36","0.5","","798","","<img src = 'img/A1-B0-L1-W1.jpg' width = '600'>","1","128","","","","",""
"","html-keyboard-response","259","453378","0.0-3.0-1.127","partial","Male","25","United States of America","","C482806","WA","freqGain","Mozilla/5.0 (Windows NT 6.1; Win64; x64) AppleWebKit/537.36 (KHTML, like Gecko) Chrome/79.0.3945.130 Safari/537.36","0.5","","null","","You avoided this hive. You earned <b>0 </b>points.","","128","null","0","49","",""
"","external-html","260","454641","0.0-4.0","partial","Male","25","United States of America","","C482806","WA","freqGain","Mozilla/5.0 (Windows NT 6.1; Win64; x64) AppleWebKit/537.36 (KHTML, like Gecko) Chrome/79.0.3945.130 Safari/537.36","0.5","","1232.9500000923872","","","","","","","","./pages/testinstr-fl.html",""
"","html-button-response","261","455673","0.0-5.0-0.0","partial","Male","25","United States of America","","C482806","WA","freqGain","Mozilla/5.0 (Windows NT 6.1; Win64; x64) AppleWebKit/537.36 (KHTML, like Gecko) Chrome/79.0.3945.130 Safari/537.36","0.5","","1030","","<img src = 'img/A0-B0-L1-W1.jpg' width = '600'>","0","","","","","","1"
"","html-keyboard-response","262","457074","0.0-5.0-1.0","partial","Male","25","United States of America","","C482806","WA","freqGain","Mozilla/5.0 (Windows NT 6.1; Win64; x64) AppleWebKit/537.36 (KHTML, like Gecko) Chrome/79.0.3945.130 Safari/537.36","0.5","","null","","","","","null","-1","48","","1"
"","html-button-response","263","457384","0.0-5.0-0.1","partial","Male","25","United States of America","","C482806","WA","freqGain","Mozilla/5.0 (Windows NT 6.1; Win64; x64) AppleWebKit/537.36 (KHTML, like Gecko) Chrome/79.0.3945.130 Safari/537.36","0.5","","309","","<img src = 'img/A1-B0-L0-W1.jpg' width = '600'>","1","","","","","","2"
"","html-keyboard-response","264","458786","0.0-5.0-1.1","partial","Male","25","United States of America","","C482806","WA","freqGain","Mozilla/5.0 (Windows NT 6.1; Win64; x64) AppleWebKit/537.36 (KHTML, like Gecko) Chrome/79.0.3945.130 Safari/537.36","0.5","","null","","","","","null","0","48","","2"
"","html-button-response","265","459904","0.0-5.0-0.2","partial","Male","25","United States of America","","C482806","WA","freqGain","Mozilla/5.0 (Windows NT 6.1; Win64; x64) AppleWebKit/537.36 (KHTML, like Gecko) Chrome/79.0.3945.130 Safari/537.36","0.5","","1118","","<img src = 'img/A1-B1-L1-W1.jpg' width = '600'>","1","","","","","","3"
"","html-keyboard-response","266","461306","0.0-5.0-1.2","partial","Male","25","United States of America","","C482806","WA","freqGain","Mozilla/5.0 (Windows NT 6.1; Win64; x64) AppleWebKit/537.36 (KHTML, like Gecko) Chrome/79.0.3945.130 Safari/537.36","0.5","","null","","","","","null","0","48","","3"
"","html-button-response","267","461920","0.0-5.0-0.3","partial","Male","25","United States of America","","C482806","WA","freqGain","Mozilla/5.0 (Windows NT 6.1; Win64; x64) AppleWebKit/537.36 (KHTML, like Gecko) Chrome/79.0.3945.130 Safari/537.36","0.5","","613","","<img src = 'img/A0-B0-L0-W0.jpg' width = '600'>","1","","","","","","4"
"","html-keyboard-response","268","463322","0.0-5.0-1.3","partial","Male","25","United States of America","","C482806","WA","freqGain","Mozilla/5.0 (Windows NT 6.1; Win64; x64) AppleWebKit/537.36 (KHTML, like Gecko) Chrome/79.0.3945.130 Safari/537.36","0.5","","null","","","","","null","0","48","","4"
"","html-button-response","269","463624","0.0-5.0-0.4","partial","Male","25","United States of America","","C482806","WA","freqGain","Mozilla/5.0 (Windows NT 6.1; Win64; x64) AppleWebKit/537.36 (KHTML, like Gecko) Chrome/79.0.3945.130 Safari/537.36","0.5","","302","","<img src = 'img/A1-B0-L0-W0.jpg' width = '600'>","1","","","","","","5"
"","html-keyboard-response","270","465026","0.0-5.0-1.4","partial","Male","25","United States of America","","C482806","WA","freqGain","Mozilla/5.0 (Windows NT 6.1; Win64; x64) AppleWebKit/537.36 (KHTML, like Gecko) Chrome/79.0.3945.130 Safari/537.36","0.5","","null","","","","","null","0","48","","5"
"","html-button-response","271","465992","0.0-5.0-0.5","partial","Male","25","United States of America","","C482806","WA","freqGain","Mozilla/5.0 (Windows NT 6.1; Win64; x64) AppleWebKit/537.36 (KHTML, like Gecko) Chrome/79.0.3945.130 Safari/537.36","0.5","","966","","<img src = 'img/A1-B1-L0-W0.jpg' width = '600'>","1","","","","","","6"
"","html-keyboard-response","272","467393","0.0-5.0-1.5","partial","Male","25","United States of America","","C482806","WA","freqGain","Mozilla/5.0 (Windows NT 6.1; Win64; x64) AppleWebKit/537.36 (KHTML, like Gecko) Chrome/79.0.3945.130 Safari/537.36","0.5","","null","","","","","null","0","48","","6"
"","html-button-response","273","467888","0.0-5.0-0.6","partial","Male","25","United States of America","","C482806","WA","freqGain","Mozilla/5.0 (Windows NT 6.1; Win64; x64) AppleWebKit/537.36 (KHTML, like Gecko) Chrome/79.0.3945.130 Safari/537.36","0.5","","494","","<img src = 'img/A0-B1-L1-W1.jpg' width = '600'>","1","","","","","","7"
"","html-keyboard-response","274","469293","0.0-5.0-1.6","partial","Male","25","United States of America","","C482806","WA","freqGain","Mozilla/5.0 (Windows NT 6.1; Win64; x64) AppleWebKit/537.36 (KHTML, like Gecko) Chrome/79.0.3945.130 Safari/537.36","0.5","","null","","","","","null","0","48","","7"
"","html-button-response","275","469483","0.0-5.0-0.7","partial","Male","25","United States of America","","C482806","WA","freqGain","Mozilla/5.0 (Windows NT 6.1; Win64; x64) AppleWebKit/537.36 (KHTML, like Gecko) Chrome/79.0.3945.130 Safari/537.36","0.5","","189","","<img src = 'img/A0-B1-L1-W0.jpg' width = '600'>","1","","","","","","8"
"","html-keyboard-response","276","470885","0.0-5.0-1.7","partial","Male","25","United States of America","","C482806","WA","freqGain","Mozilla/5.0 (Windows NT 6.1; Win64; x64) AppleWebKit/537.36 (KHTML, like Gecko) Chrome/79.0.3945.130 Safari/537.36","0.5","","null","","","","","null","0","48","","8"
"","html-button-response","277","471875","0.0-5.0-0.8","partial","Male","25","United States of America","","C482806","WA","freqGain","Mozilla/5.0 (Windows NT 6.1; Win64; x64) AppleWebKit/537.36 (KHTML, like Gecko) Chrome/79.0.3945.130 Safari/537.36","0.5","","990","","<img src = 'img/A0-B1-L0-W0.jpg' width = '600'>","0","","","","","","9"
"","html-keyboard-response","278","473277","0.0-5.0-1.8","partial","Male","25","United States of America","","C482806","WA","freqGain","Mozilla/5.0 (Windows NT 6.1; Win64; x64) AppleWebKit/537.36 (KHTML, like Gecko) Chrome/79.0.3945.130 Safari/537.36","0.5","","null","","","","","null","-1","47","","9"
"","html-button-response","279","473523","0.0-5.0-0.9","partial","Male","25","United States of America","","C482806","WA","freqGain","Mozilla/5.0 (Windows NT 6.1; Win64; x64) AppleWebKit/537.36 (KHTML, like Gecko) Chrome/79.0.3945.130 Safari/537.36","0.5","","246","","<img src = 'img/A1-B0-L1-W1.jpg' width = '600'>","0","","","","","","10"
"","html-keyboard-response","280","474925","0.0-5.0-1.9","partial","Male","25","United States of America","","C482806","WA","freqGain","Mozilla/5.0 (Windows NT 6.1; Win64; x64) AppleWebKit/537.36 (KHTML, like Gecko) Chrome/79.0.3945.130 Safari/537.36","0.5","","null","","","","","null","3","50","","10"
"","html-button-response","281","475251","0.0-5.0-0.10","partial","Male","25","United States of America","","C482806","WA","freqGain","Mozilla/5.0 (Windows NT 6.1; Win64; x64) AppleWebKit/537.36 (KHTML, like Gecko) Chrome/79.0.3945.130 Safari/537.36","0.5","","326","","<img src = 'img/A0-B0-L0-W1.jpg' width = '600'>","0","","","","","","11"
"","html-keyboard-response","282","476652","0.0-5.0-1.10","partial","Male","25","United States of America","","C482806","WA","freqGain","Mozilla/5.0 (Windows NT 6.1; Win64; x64) AppleWebKit/537.36 (KHTML, like Gecko) Chrome/79.0.3945.130 Safari/537.36","0.5","","null","","","","","null","-1","49","","11"
"","html-button-response","283","476851","0.0-5.0-0.11","partial","Male","25","United States of America","","C482806","WA","freqGain","Mozilla/5.0 (Windows NT 6.1; Win64; x64) AppleWebKit/537.36 (KHTML, like Gecko) Chrome/79.0.3945.130 Safari/537.36","0.5","","198","","<img src = 'img/A0-B0-L1-W0.jpg' width = '600'>","0","","","","","","12"
"","html-keyboard-response","284","478252","0.0-5.0-1.11","partial","Male","25","United States of America","","C482806","WA","freqGain","Mozilla/5.0 (Windows NT 6.1; Win64; x64) AppleWebKit/537.36 (KHTML, like Gecko) Chrome/79.0.3945.130 Safari/537.36","0.5","","null","","","","","null","-1","48","","12"
"","html-button-response","285","478435","0.0-5.0-0.12","partial","Male","25","United States of America","","C482806","WA","freqGain","Mozilla/5.0 (Windows NT 6.1; Win64; x64) AppleWebKit/537.36 (KHTML, like Gecko) Chrome/79.0.3945.130 Safari/537.36","0.5","","182","","<img src = 'img/A1-B1-L1-W0.jpg' width = '600'>","0","","","","","","13"
