"success","trial_type","trial_index","time_elapsed","internal_node_id","feedback","gender","age","country","email","turkcode","relevantDim","condition","browserinfo","bonus","view_history","rt","responses","stimulus","button_pressed","i","key_press","earnedThis","earnedCumulative","url","k"
"true","fullscreen","0","1746","0.0-0.0","full","Male","18","United States of America","","C924837","BA","freqGain","Mozilla/5.0 (Macintosh; Intel Mac OS X 10_13_6) AppleWebKit/537.36 (KHTML, like Gecko) Chrome/81.0.4044.138 Safari/537.36","0.52","","","","","","","","","","",""
"","instructions","1","13980","0.0-1.0-0.0","full","Male","18","United States of America","","C924837","BA","freqGain","Mozilla/5.0 (Macintosh; Intel Mac OS X 10_13_6) AppleWebKit/537.36 (KHTML, like Gecko) Chrome/81.0.4044.138 Safari/537.36","0.52","[{""page_index"":0,""viewing_time"":924},{""page_index"":1,""viewing_time"":9738},{""page_index"":2,""viewing_time"":1568}]","12231","","","","","","","","",""
"","survey-html-form","2","48527","0.0-1.0-1.0","full","Male","18","United States of America","","C924837","BA","freqGain","Mozilla/5.0 (Macintosh; Intel Mac OS X 10_13_6) AppleWebKit/537.36 (KHTML, like Gecko) Chrome/81.0.4044.138 Safari/537.36","0.52","","34542.22999999183","{""legs"":""checked"",""body"":""checked"",""wings"":""checked"",""antennae"":""checked"",""change"":""no"",""telldangerous"":""feature"",""avoidinfo"":""info""}","","","","","","","",""
"","html-button-response","3","49789","0.0-2.0","full","Male","18","United States of America","","C924837","BA","freqGain","Mozilla/5.0 (Macintosh; Intel Mac OS X 10_13_6) AppleWebKit/537.36 (KHTML, like Gecko) Chrome/81.0.4044.138 Safari/537.36","0.52","","1257","","<p>Well done! This is now the last page of instructions.</p> <p>You're going to start experiment now.</p>","0","","","","","",""
"","html-button-response","4","51233","0.0-3.0-0.0","full","Male","18","United States of America","","C924837","BA","freqGain","Mozilla/5.0 (Macintosh; Intel Mac OS X 10_13_6) AppleWebKit/537.36 (KHTML, like Gecko) Chrome/81.0.4044.138 Safari/537.36","0.52","","1438","","<img src = 'img/A0-B0-L0-W0.jpg' width = '600'>","0","1","","","","",""
"","html-keyboard-response","5","53240","0.0-3.0-1.0","full","Male","18","United States of America","","C924837","BA","freqGain","Mozilla/5.0 (Macintosh; Intel Mac OS X 10_13_6) AppleWebKit/537.36 (KHTML, like Gecko) Chrome/81.0.4044.138 Safari/537.36","0.52","","null","","You successfully harvested honey! You earned <b>1 </b>point.","","1","null","1","51","",""
"","html-button-response","6","53286","0.0-3.0-0.1","full","Male","18","United States of America","","C924837","BA","freqGain","Mozilla/5.0 (Macintosh; Intel Mac OS X 10_13_6) AppleWebKit/537.36 (KHTML, like Gecko) Chrome/81.0.4044.138 Safari/537.36","0.52","","44","","<img src = 'img/A0-B0-L1-W0.jpg' width = '600'>","0","2","","","","",""
"","html-keyboard-response","7","55290","0.0-3.0-1.1","full","Male","18","United States of America","","C924837","BA","freqGain","Mozilla/5.0 (Macintosh; Intel Mac OS X 10_13_6) AppleWebKit/537.36 (KHTML, like Gecko) Chrome/81.0.4044.138 Safari/537.36","0.52","","null","","You successfully harvested honey! You earned <b>1 </b>point.","","2","null","1","52","",""
"","html-button-response","8","55519","0.0-3.0-0.2","full","Male","18","United States of America","","C924837","BA","freqGain","Mozilla/5.0 (Macintosh; Intel Mac OS X 10_13_6) AppleWebKit/537.36 (KHTML, like Gecko) Chrome/81.0.4044.138 Safari/537.36","0.52","","225","","<img src = 'img/A0-B0-L1-W1.jpg' width = '600'>","0","3","","","","",""
"","html-keyboard-response","9","57523","0.0-3.0-1.2","full","Male","18","United States of America","","C924837","BA","freqGain","Mozilla/5.0 (Macintosh; Intel Mac OS X 10_13_6) AppleWebKit/537.36 (KHTML, like Gecko) Chrome/81.0.4044.138 Safari/537.36","0.52","","null","","You successfully harvested honey! You earned <b>1 </b>point.","","3","null","1","53","",""
"","html-button-response","10","58314","0.0-3.0-0.3","full","Male","18","United States of America","","C924837","BA","freqGain","Mozilla/5.0 (Macintosh; Intel Mac OS X 10_13_6) AppleWebKit/537.36 (KHTML, like Gecko) Chrome/81.0.4044.138 Safari/537.36","0.52","","787","","<img src = 'img/A0-B1-L1-W0.jpg' width = '600'>","0","4","","","","",""
"","html-keyboard-response","11","60316","0.0-3.0-1.3","full","Male","18","United States of America","","C924837","BA","freqGain","Mozilla/5.0 (Macintosh; Intel Mac OS X 10_13_6) AppleWebKit/537.36 (KHTML, like Gecko) Chrome/81.0.4044.138 Safari/537.36","0.52","","null","","You successfully harvested honey! You earned <b>1 </b>point.","","4","null","1","54","",""
"","html-button-response","12","60421","0.0-3.0-0.4","full","Male","18","United States of America","","C924837","BA","freqGain","Mozilla/5.0 (Macintosh; Intel Mac OS X 10_13_6) AppleWebKit/537.36 (KHTML, like Gecko) Chrome/81.0.4044.138 Safari/537.36","0.52","","99","","<img src = 'img/A0-B1-L0-W0.jpg' width = '600'>","0","5","","","","",""
"","html-keyboard-response","13","62427","0.0-3.0-1.4","full","Male","18","United States of America","","C924837","BA","freqGain","Mozilla/5.0 (Macintosh; Intel Mac OS X 10_13_6) AppleWebKit/537.36 (KHTML, like Gecko) Chrome/81.0.4044.138 Safari/537.36","0.52","","null","","You successfully harvested honey! You earned <b>1 </b>point.","","5","null","1","55","",""
"","html-button-response","14","62525","0.0-3.0-0.5","full","Male","18","United States of America","","C924837","BA","freqGain","Mozilla/5.0 (Macintosh; Intel Mac OS X 10_13_6) AppleWebKit/537.36 (KHTML, like Gecko) Chrome/81.0.4044.138 Safari/537.36","0.52","","96","","<img src = 'img/A1-B1-L1-W0.jpg' width = '600'>","0","6","","","","",""
"","html-keyboard-response","15","64532","0.0-3.0-1.5","full","Male","18","United States of America","","C924837","BA","freqGain","Mozilla/5.0 (Macintosh; Intel Mac OS X 10_13_6) AppleWebKit/537.36 (KHTML, like Gecko) Chrome/81.0.4044.138 Safari/537.36","0.52","","null","","Ouch, you were stung! You lost <b>-3 </b>points.","","6","null","-3","52","",""
"","html-button-response","16","106600","0.0-3.0-0.6","full","Male","18","United States of America","","C924837","BA","freqGain","Mozilla/5.0 (Macintosh; Intel Mac OS X 10_13_6) AppleWebKit/537.36 (KHTML, like Gecko) Chrome/81.0.4044.138 Safari/537.36","0.52","","42065","","<img src = 'img/A1-B1-L0-W1.jpg' width = '600'>","0","7","","","","",""
"","html-keyboard-response","17","108605","0.0-3.0-1.6","full","Male","18","United States of America","","C924837","BA","freqGain","Mozilla/5.0 (Macintosh; Intel Mac OS X 10_13_6) AppleWebKit/537.36 (KHTML, like Gecko) Chrome/81.0.4044.138 Safari/537.36","0.52","","null","","Ouch, you were stung! You lost <b>-3 </b>points.","","7","null","-3","49","",""
"","html-button-response","18","110868","0.0-3.0-0.7","full","Male","18","United States of America","","C924837","BA","freqGain","Mozilla/5.0 (Macintosh; Intel Mac OS X 10_13_6) AppleWebKit/537.36 (KHTML, like Gecko) Chrome/81.0.4044.138 Safari/537.36","0.52","","2261","","<img src = 'img/A0-B0-L0-W1.jpg' width = '600'>","0","8","","","","",""
"","html-keyboard-response","19","112872","0.0-3.0-1.7","full","Male","18","United States of America","","C924837","BA","freqGain","Mozilla/5.0 (Macintosh; Intel Mac OS X 10_13_6) AppleWebKit/537.36 (KHTML, like Gecko) Chrome/81.0.4044.138 Safari/537.36","0.52","","null","","You successfully harvested honey! You earned <b>1 </b>point.","","8","null","1","50","",""
"","html-button-response","20","113266","0.0-3.0-0.8","full","Male","18","United States of America","","C924837","BA","freqGain","Mozilla/5.0 (Macintosh; Intel Mac OS X 10_13_6) AppleWebKit/537.36 (KHTML, like Gecko) Chrome/81.0.4044.138 Safari/537.36","0.52","","391","","<img src = 'img/A1-B1-L0-W0.jpg' width = '600'>","0","9","","","","",""
"","html-keyboard-response","21","115272","0.0-3.0-1.8","full","Male","18","United States of America","","C924837","BA","freqGain","Mozilla/5.0 (Macintosh; Intel Mac OS X 10_13_6) AppleWebKit/537.36 (KHTML, like Gecko) Chrome/81.0.4044.138 Safari/537.36","0.52","","null","","Ouch, you were stung! You lost <b>-3 </b>points.","","9","null","-3","47","",""
"","html-button-response","22","116043","0.0-3.0-0.9","full","Male","18","United States of America","","C924837","BA","freqGain","Mozilla/5.0 (Macintosh; Intel Mac OS X 10_13_6) AppleWebKit/537.36 (KHTML, like Gecko) Chrome/81.0.4044.138 Safari/537.36","0.52","","769","","<img src = 'img/A0-B1-L0-W1.jpg' width = '600'>","0","10","","","","",""
"","html-keyboard-response","23","118047","0.0-3.0-1.9","full","Male","18","United States of America","","C924837","BA","freqGain","Mozilla/5.0 (Macintosh; Intel Mac OS X 10_13_6) AppleWebKit/537.36 (KHTML, like Gecko) Chrome/81.0.4044.138 Safari/537.36","0.52","","null","","You successfully harvested honey! You earned <b>1 </b>point.","","10","null","1","48","",""
"","html-button-response","24","118508","0.0-3.0-0.10","full","Male","18","United States of America","","C924837","BA","freqGain","Mozilla/5.0 (Macintosh; Intel Mac OS X 10_13_6) AppleWebKit/537.36 (KHTML, like Gecko) Chrome/81.0.4044.138 Safari/537.36","0.52","","458","","<img src = 'img/A1-B1-L1-W1.jpg' width = '600'>","0","11","","","","",""
"","html-keyboard-response","25","120515","0.0-3.0-1.10","full","Male","18","United States of America","","C924837","BA","freqGain","Mozilla/5.0 (Macintosh; Intel Mac OS X 10_13_6) AppleWebKit/537.36 (KHTML, like Gecko) Chrome/81.0.4044.138 Safari/537.36","0.52","","null","","Ouch, you were stung! You lost <b>-3 </b>points.","","11","null","-3","45","",""
"","html-button-response","26","120916","0.0-3.0-0.11","full","Male","18","United States of America","","C924837","BA","freqGain","Mozilla/5.0 (Macintosh; Intel Mac OS X 10_13_6) AppleWebKit/537.36 (KHTML, like Gecko) Chrome/81.0.4044.138 Safari/537.36","0.52","","397","","<img src = 'img/A0-B1-L1-W1.jpg' width = '600'>","0","12","","","","",""
"","html-keyboard-response","27","122920","0.0-3.0-1.11","full","Male","18","United States of America","","C924837","BA","freqGain","Mozilla/5.0 (Macintosh; Intel Mac OS X 10_13_6) AppleWebKit/537.36 (KHTML, like Gecko) Chrome/81.0.4044.138 Safari/537.36","0.52","","null","","You successfully harvested honey! You earned <b>1 </b>point.","","12","null","1","46","",""
"","html-button-response","28","123626","0.0-3.0-0.12","full","Male","18","United States of America","","C924837","BA","freqGain","Mozilla/5.0 (Macintosh; Intel Mac OS X 10_13_6) AppleWebKit/537.36 (KHTML, like Gecko) Chrome/81.0.4044.138 Safari/537.36","0.52","","703","","<img src = 'img/A1-B0-L0-W0.jpg' width = '600'>","0","13","","","","",""
"","html-keyboard-response","29","125633","0.0-3.0-1.12","full","Male","18","United States of America","","C924837","BA","freqGain","Mozilla/5.0 (Macintosh; Intel Mac OS X 10_13_6) AppleWebKit/537.36 (KHTML, like Gecko) Chrome/81.0.4044.138 Safari/537.36","0.52","","null","","You successfully harvested honey! You earned <b>1 </b>point.","","13","null","1","47","",""
"","html-button-response","30","126268","0.0-3.0-0.13","full","Male","18","United States of America","","C924837","BA","freqGain","Mozilla/5.0 (Macintosh; Intel Mac OS X 10_13_6) AppleWebKit/537.36 (KHTML, like Gecko) Chrome/81.0.4044.138 Safari/537.36","0.52","","633","","<img src = 'img/A1-B0-L0-W1.jpg' width = '600'>","0","14","","","","",""
"","html-keyboard-response","31","128272","0.0-3.0-1.13","full","Male","18","United States of America","","C924837","BA","freqGain","Mozilla/5.0 (Macintosh; Intel Mac OS X 10_13_6) AppleWebKit/537.36 (KHTML, like Gecko) Chrome/81.0.4044.138 Safari/537.36","0.52","","null","","You successfully harvested honey! You earned <b>1 </b>point.","","14","null","1","48","",""
"","html-button-response","32","176534","0.0-3.0-0.14","full","Male","18","United States of America","","C924837","BA","freqGain","Mozilla/5.0 (Macintosh; Intel Mac OS X 10_13_6) AppleWebKit/537.36 (KHTML, like Gecko) Chrome/81.0.4044.138 Safari/537.36","0.52","","48259","","<img src = 'img/A1-B0-L1-W1.jpg' width = '600'>","0","15","","","","",""
"","html-keyboard-response","33","178540","0.0-3.0-1.14","full","Male","18","United States of America","","C924837","BA","freqGain","Mozilla/5.0 (Macintosh; Intel Mac OS X 10_13_6) AppleWebKit/537.36 (KHTML, like Gecko) Chrome/81.0.4044.138 Safari/537.36","0.52","","null","","You successfully harvested honey! You earned <b>1 </b>point.","","15","null","1","49","",""
"","html-button-response","34","179127","0.0-3.0-0.15","full","Male","18","United States of America","","C924837","BA","freqGain","Mozilla/5.0 (Macintosh; Intel Mac OS X 10_13_6) AppleWebKit/537.36 (KHTML, like Gecko) Chrome/81.0.4044.138 Safari/537.36","0.52","","586","","<img src = 'img/A1-B0-L1-W0.jpg' width = '600'>","0","16","","","","",""
"","html-keyboard-response","35","181134","0.0-3.0-1.15","full","Male","18","United States of America","","C924837","BA","freqGain","Mozilla/5.0 (Macintosh; Intel Mac OS X 10_13_6) AppleWebKit/537.36 (KHTML, like Gecko) Chrome/81.0.4044.138 Safari/537.36","0.52","","null","","You successfully harvested honey! You earned <b>1 </b>point.","","16","null","1","50","",""
"","html-button-response","36","181304","0.0-3.0-0.16","full","Male","18","United States of America","","C924837","BA","freqGain","Mozilla/5.0 (Macintosh; Intel Mac OS X 10_13_6) AppleWebKit/537.36 (KHTML, like Gecko) Chrome/81.0.4044.138 Safari/537.36","0.52","","168","","<img src = 'img/A1-B0-L1-W0.jpg' width = '600'>","0","17","","","","",""
"","html-keyboard-response","37","183311","0.0-3.0-1.16","full","Male","18","United States of America","","C924837","BA","freqGain","Mozilla/5.0 (Macintosh; Intel Mac OS X 10_13_6) AppleWebKit/537.36 (KHTML, like Gecko) Chrome/81.0.4044.138 Safari/537.36","0.52","","null","","You successfully harvested honey! You earned <b>1 </b>point.","","17","null","1","51","",""
"","html-button-response","38","183486","0.0-3.0-0.17","full","Male","18","United States of America","","C924837","BA","freqGain","Mozilla/5.0 (Macintosh; Intel Mac OS X 10_13_6) AppleWebKit/537.36 (KHTML, like Gecko) Chrome/81.0.4044.138 Safari/537.36","0.52","","172","","<img src = 'img/A1-B1-L1-W0.jpg' width = '600'>","0","18","","","","",""
"","html-keyboard-response","39","185493","0.0-3.0-1.17","full","Male","18","United States of America","","C924837","BA","freqGain","Mozilla/5.0 (Macintosh; Intel Mac OS X 10_13_6) AppleWebKit/537.36 (KHTML, like Gecko) Chrome/81.0.4044.138 Safari/537.36","0.52","","null","","Ouch, you were stung! You lost <b>-3 </b>points.","","18","null","-3","48","",""
"","html-button-response","40","185736","0.0-3.0-0.18","full","Male","18","United States of America","","C924837","BA","freqGain","Mozilla/5.0 (Macintosh; Intel Mac OS X 10_13_6) AppleWebKit/537.36 (KHTML, like Gecko) Chrome/81.0.4044.138 Safari/537.36","0.52","","241","","<img src = 'img/A1-B1-L0-W0.jpg' width = '600'>","0","19","","","","",""
"","html-keyboard-response","41","187744","0.0-3.0-1.18","full","Male","18","United States of America","","C924837","BA","freqGain","Mozilla/5.0 (Macintosh; Intel Mac OS X 10_13_6) AppleWebKit/537.36 (KHTML, like Gecko) Chrome/81.0.4044.138 Safari/537.36","0.52","","null","","Ouch, you were stung! You lost <b>-3 </b>points.","","19","null","-3","45","",""
"","html-button-response","42","188009","0.0-3.0-0.19","full","Male","18","United States of America","","C924837","BA","freqGain","Mozilla/5.0 (Macintosh; Intel Mac OS X 10_13_6) AppleWebKit/537.36 (KHTML, like Gecko) Chrome/81.0.4044.138 Safari/537.36","0.52","","262","","<img src = 'img/A0-B0-L1-W0.jpg' width = '600'>","0","20","","","","",""
"","html-keyboard-response","43","190016","0.0-3.0-1.19","full","Male","18","United States of America","","C924837","BA","freqGain","Mozilla/5.0 (Macintosh; Intel Mac OS X 10_13_6) AppleWebKit/537.36 (KHTML, like Gecko) Chrome/81.0.4044.138 Safari/537.36","0.52","","null","","You successfully harvested honey! You earned <b>1 </b>point.","","20","null","1","46","",""
"","html-button-response","44","190305","0.0-3.0-0.20","full","Male","18","United States of America","","C924837","BA","freqGain","Mozilla/5.0 (Macintosh; Intel Mac OS X 10_13_6) AppleWebKit/537.36 (KHTML, like Gecko) Chrome/81.0.4044.138 Safari/537.36","0.52","","286","","<img src = 'img/A0-B1-L0-W1.jpg' width = '600'>","0","21","","","","",""
"","html-keyboard-response","45","192309","0.0-3.0-1.20","full","Male","18","United States of America","","C924837","BA","freqGain","Mozilla/5.0 (Macintosh; Intel Mac OS X 10_13_6) AppleWebKit/537.36 (KHTML, like Gecko) Chrome/81.0.4044.138 Safari/537.36","0.52","","null","","You successfully harvested honey! You earned <b>1 </b>point.","","21","null","1","47","",""
"","html-button-response","46","192599","0.0-3.0-0.21","full","Male","18","United States of America","","C924837","BA","freqGain","Mozilla/5.0 (Macintosh; Intel Mac OS X 10_13_6) AppleWebKit/537.36 (KHTML, like Gecko) Chrome/81.0.4044.138 Safari/537.36","0.52","","288","","<img src = 'img/A0-B1-L0-W0.jpg' width = '600'>","0","22","","","","",""
"","html-keyboard-response","47","194602","0.0-3.0-1.21","full","Male","18","United States of America","","C924837","BA","freqGain","Mozilla/5.0 (Macintosh; Intel Mac OS X 10_13_6) AppleWebKit/537.36 (KHTML, like Gecko) Chrome/81.0.4044.138 Safari/537.36","0.52","","null","","You successfully harvested honey! You earned <b>1 </b>point.","","22","null","1","48","",""
"","html-button-response","48","194905","0.0-3.0-0.22","full","Male","18","United States of America","","C924837","BA","freqGain","Mozilla/5.0 (Macintosh; Intel Mac OS X 10_13_6) AppleWebKit/537.36 (KHTML, like Gecko) Chrome/81.0.4044.138 Safari/537.36","0.52","","301","","<img src = 'img/A0-B0-L1-W1.jpg' width = '600'>","0","23","","","","",""
"","html-keyboard-response","49","196911","0.0-3.0-1.22","full","Male","18","United States of America","","C924837","BA","freqGain","Mozilla/5.0 (Macintosh; Intel Mac OS X 10_13_6) AppleWebKit/537.36 (KHTML, like Gecko) Chrome/81.0.4044.138 Safari/537.36","0.52","","null","","You successfully harvested honey! You earned <b>1 </b>point.","","23","null","1","49","",""
"","html-button-response","50","197064","0.0-3.0-0.23","full","Male","18","United States of America","","C924837","BA","freqGain","Mozilla/5.0 (Macintosh; Intel Mac OS X 10_13_6) AppleWebKit/537.36 (KHTML, like Gecko) Chrome/81.0.4044.138 Safari/537.36","0.52","","152","","<img src = 'img/A0-B1-L1-W1.jpg' width = '600'>","0","24","","","","",""
"","html-keyboard-response","51","199071","0.0-3.0-1.23","full","Male","18","United States of America","","C924837","BA","freqGain","Mozilla/5.0 (Macintosh; Intel Mac OS X 10_13_6) AppleWebKit/537.36 (KHTML, like Gecko) Chrome/81.0.4044.138 Safari/537.36","0.52","","null","","You successfully harvested honey! You earned <b>1 </b>point.","","24","null","1","50","",""
"","html-button-response","52","199281","0.0-3.0-0.24","full","Male","18","United States of America","","C924837","BA","freqGain","Mozilla/5.0 (Macintosh; Intel Mac OS X 10_13_6) AppleWebKit/537.36 (KHTML, like Gecko) Chrome/81.0.4044.138 Safari/537.36","0.52","","207","","<img src = 'img/A0-B1-L1-W0.jpg' width = '600'>","0","25","","","","",""
"","html-keyboard-response","53","201289","0.0-3.0-1.24","full","Male","18","United States of America","","C924837","BA","freqGain","Mozilla/5.0 (Macintosh; Intel Mac OS X 10_13_6) AppleWebKit/537.36 (KHTML, like Gecko) Chrome/81.0.4044.138 Safari/537.36","0.52","","null","","You successfully harvested honey! You earned <b>1 </b>point.","","25","null","1","51","",""
"","html-button-response","54","201700","0.0-3.0-0.25","full","Male","18","United States of America","","C924837","BA","freqGain","Mozilla/5.0 (Macintosh; Intel Mac OS X 10_13_6) AppleWebKit/537.36 (KHTML, like Gecko) Chrome/81.0.4044.138 Safari/537.36","0.52","","407","","<img src = 'img/A1-B0-L0-W0.jpg' width = '600'>","0","26","","","","",""
"","html-keyboard-response","55","203705","0.0-3.0-1.25","full","Male","18","United States of America","","C924837","BA","freqGain","Mozilla/5.0 (Macintosh; Intel Mac OS X 10_13_6) AppleWebKit/537.36 (KHTML, like Gecko) Chrome/81.0.4044.138 Safari/537.36","0.52","","null","","You successfully harvested honey! You earned <b>1 </b>point.","","26","null","1","52","",""
"","html-button-response","56","204096","0.0-3.0-0.26","full","Male","18","United States of America","","C924837","BA","freqGain","Mozilla/5.0 (Macintosh; Intel Mac OS X 10_13_6) AppleWebKit/537.36 (KHTML, like Gecko) Chrome/81.0.4044.138 Safari/537.36","0.52","","388","","<img src = 'img/A1-B0-L0-W1.jpg' width = '600'>","0","27","","","","",""
"","html-keyboard-response","57","206102","0.0-3.0-1.26","full","Male","18","United States of America","","C924837","BA","freqGain","Mozilla/5.0 (Macintosh; Intel Mac OS X 10_13_6) AppleWebKit/537.36 (KHTML, like Gecko) Chrome/81.0.4044.138 Safari/537.36","0.52","","null","","You successfully harvested honey! You earned <b>1 </b>point.","","27","null","1","53","",""
"","html-button-response","58","206391","0.0-3.0-0.27","full","Male","18","United States of America","","C924837","BA","freqGain","Mozilla/5.0 (Macintosh; Intel Mac OS X 10_13_6) AppleWebKit/537.36 (KHTML, like Gecko) Chrome/81.0.4044.138 Safari/537.36","0.52","","286","","<img src = 'img/A1-B0-L1-W1.jpg' width = '600'>","0","28","","","","",""
"","html-keyboard-response","59","208395","0.0-3.0-1.27","full","Male","18","United States of America","","C924837","BA","freqGain","Mozilla/5.0 (Macintosh; Intel Mac OS X 10_13_6) AppleWebKit/537.36 (KHTML, like Gecko) Chrome/81.0.4044.138 Safari/537.36","0.52","","null","","You successfully harvested honey! You earned <b>1 </b>point.","","28","null","1","54","",""
"","html-button-response","60","208540","0.0-3.0-0.28","full","Male","18","United States of America","","C924837","BA","freqGain","Mozilla/5.0 (Macintosh; Intel Mac OS X 10_13_6) AppleWebKit/537.36 (KHTML, like Gecko) Chrome/81.0.4044.138 Safari/537.36","0.52","","142","","<img src = 'img/A0-B0-L0-W0.jpg' width = '600'>","0","29","","","","",""
"","html-keyboard-response","61","210543","0.0-3.0-1.28","full","Male","18","United States of America","","C924837","BA","freqGain","Mozilla/5.0 (Macintosh; Intel Mac OS X 10_13_6) AppleWebKit/537.36 (KHTML, like Gecko) Chrome/81.0.4044.138 Safari/537.36","0.52","","null","","You successfully harvested honey! You earned <b>1 </b>point.","","29","null","1","55","",""
"","html-button-response","62","210937","0.0-3.0-0.29","full","Male","18","United States of America","","C924837","BA","freqGain","Mozilla/5.0 (Macintosh; Intel Mac OS X 10_13_6) AppleWebKit/537.36 (KHTML, like Gecko) Chrome/81.0.4044.138 Safari/537.36","0.52","","392","","<img src = 'img/A1-B1-L1-W1.jpg' width = '600'>","0","30","","","","",""
"","html-keyboard-response","63","212940","0.0-3.0-1.29","full","Male","18","United States of America","","C924837","BA","freqGain","Mozilla/5.0 (Macintosh; Intel Mac OS X 10_13_6) AppleWebKit/537.36 (KHTML, like Gecko) Chrome/81.0.4044.138 Safari/537.36","0.52","","null","","Ouch, you were stung! You lost <b>-3 </b>points.","","30","null","-3","52","",""
"","html-button-response","64","213242","0.0-3.0-0.30","full","Male","18","United States of America","","C924837","BA","freqGain","Mozilla/5.0 (Macintosh; Intel Mac OS X 10_13_6) AppleWebKit/537.36 (KHTML, like Gecko) Chrome/81.0.4044.138 Safari/537.36","0.52","","299","","<img src = 'img/A0-B0-L0-W1.jpg' width = '600'>","0","31","","","","",""
"","html-keyboard-response","65","215246","0.0-3.0-1.30","full","Male","18","United States of America","","C924837","BA","freqGain","Mozilla/5.0 (Macintosh; Intel Mac OS X 10_13_6) AppleWebKit/537.36 (KHTML, like Gecko) Chrome/81.0.4044.138 Safari/537.36","0.52","","null","","You successfully harvested honey! You earned <b>1 </b>point.","","31","null","1","53","",""
"","html-button-response","66","215413","0.0-3.0-0.31","full","Male","18","United States of America","","C924837","BA","freqGain","Mozilla/5.0 (Macintosh; Intel Mac OS X 10_13_6) AppleWebKit/537.36 (KHTML, like Gecko) Chrome/81.0.4044.138 Safari/537.36","0.52","","165","","<img src = 'img/A1-B1-L0-W1.jpg' width = '600'>","0","32","","","","",""
"","html-keyboard-response","67","217417","0.0-3.0-1.31","full","Male","18","United States of America","","C924837","BA","freqGain","Mozilla/5.0 (Macintosh; Intel Mac OS X 10_13_6) AppleWebKit/537.36 (KHTML, like Gecko) Chrome/81.0.4044.138 Safari/537.36","0.52","","null","","Ouch, you were stung! You lost <b>-3 </b>points.","","32","null","-3","50","",""
"","html-button-response","68","217742","0.0-3.0-0.32","full","Male","18","United States of America","","C924837","BA","freqGain","Mozilla/5.0 (Macintosh; Intel Mac OS X 10_13_6) AppleWebKit/537.36 (KHTML, like Gecko) Chrome/81.0.4044.138 Safari/537.36","0.52","","322","","<img src = 'img/A0-B0-L0-W1.jpg' width = '600'>","0","33","","","","",""
"","html-keyboard-response","69","219751","0.0-3.0-1.32","full","Male","18","United States of America","","C924837","BA","freqGain","Mozilla/5.0 (Macintosh; Intel Mac OS X 10_13_6) AppleWebKit/537.36 (KHTML, like Gecko) Chrome/81.0.4044.138 Safari/537.36","0.52","","null","","You successfully harvested honey! You earned <b>1 </b>point.","","33","null","1","51","",""
"","html-button-response","70","220060","0.0-3.0-0.33","full","Male","18","United States of America","","C924837","BA","freqGain","Mozilla/5.0 (Macintosh; Intel Mac OS X 10_13_6) AppleWebKit/537.36 (KHTML, like Gecko) Chrome/81.0.4044.138 Safari/537.36","0.52","","307","","<img src = 'img/A1-B0-L0-W1.jpg' width = '600'>","0","34","","","","",""
"","html-keyboard-response","71","222067","0.0-3.0-1.33","full","Male","18","United States of America","","C924837","BA","freqGain","Mozilla/5.0 (Macintosh; Intel Mac OS X 10_13_6) AppleWebKit/537.36 (KHTML, like Gecko) Chrome/81.0.4044.138 Safari/537.36","0.52","","null","","You successfully harvested honey! You earned <b>1 </b>point.","","34","null","1","52","",""
"","html-button-response","72","222726","0.0-3.0-0.34","full","Male","18","United States of America","","C924837","BA","freqGain","Mozilla/5.0 (Macintosh; Intel Mac OS X 10_13_6) AppleWebKit/537.36 (KHTML, like Gecko) Chrome/81.0.4044.138 Safari/537.36","0.52","","657","","<img src = 'img/A1-B1-L1-W1.jpg' width = '600'>","0","35","","","","",""
"","html-keyboard-response","73","224731","0.0-3.0-1.34","full","Male","18","United States of America","","C924837","BA","freqGain","Mozilla/5.0 (Macintosh; Intel Mac OS X 10_13_6) AppleWebKit/537.36 (KHTML, like Gecko) Chrome/81.0.4044.138 Safari/537.36","0.52","","null","","Ouch, you were stung! You lost <b>-3 </b>points.","","35","null","-3","49","",""
"","html-button-response","74","225122","0.0-3.0-0.35","full","Male","18","United States of America","","C924837","BA","freqGain","Mozilla/5.0 (Macintosh; Intel Mac OS X 10_13_6) AppleWebKit/537.36 (KHTML, like Gecko) Chrome/81.0.4044.138 Safari/537.36","0.52","","388","","<img src = 'img/A0-B0-L1-W1.jpg' width = '600'>","0","36","","","","",""
"","html-keyboard-response","75","227125","0.0-3.0-1.35","full","Male","18","United States of America","","C924837","BA","freqGain","Mozilla/5.0 (Macintosh; Intel Mac OS X 10_13_6) AppleWebKit/537.36 (KHTML, like Gecko) Chrome/81.0.4044.138 Safari/537.36","0.52","","null","","You successfully harvested honey! You earned <b>1 </b>point.","","36","null","1","50","",""
"","html-button-response","76","227507","0.0-3.0-0.36","full","Male","18","United States of America","","C924837","BA","freqGain","Mozilla/5.0 (Macintosh; Intel Mac OS X 10_13_6) AppleWebKit/537.36 (KHTML, like Gecko) Chrome/81.0.4044.138 Safari/537.36","0.52","","379","","<img src = 'img/A1-B1-L0-W1.jpg' width = '600'>","0","37","","","","",""
"","html-keyboard-response","77","229510","0.0-3.0-1.36","full","Male","18","United States of America","","C924837","BA","freqGain","Mozilla/5.0 (Macintosh; Intel Mac OS X 10_13_6) AppleWebKit/537.36 (KHTML, like Gecko) Chrome/81.0.4044.138 Safari/537.36","0.52","","null","","Ouch, you were stung! You lost <b>-3 </b>points.","","37","null","-3","47","",""
"","html-button-response","78","229825","0.0-3.0-0.37","full","Male","18","United States of America","","C924837","BA","freqGain","Mozilla/5.0 (Macintosh; Intel Mac OS X 10_13_6) AppleWebKit/537.36 (KHTML, like Gecko) Chrome/81.0.4044.138 Safari/537.36","0.52","","313","","<img src = 'img/A0-B1-L1-W1.jpg' width = '600'>","0","38","","","","",""
"","html-keyboard-response","79","231830","0.0-3.0-1.37","full","Male","18","United States of America","","C924837","BA","freqGain","Mozilla/5.0 (Macintosh; Intel Mac OS X 10_13_6) AppleWebKit/537.36 (KHTML, like Gecko) Chrome/81.0.4044.138 Safari/537.36","0.52","","null","","You successfully harvested honey! You earned <b>1 </b>point.","","38","null","1","48","",""
"","html-button-response","80","232030","0.0-3.0-0.38","full","Male","18","United States of America","","C924837","BA","freqGain","Mozilla/5.0 (Macintosh; Intel Mac OS X 10_13_6) AppleWebKit/537.36 (KHTML, like Gecko) Chrome/81.0.4044.138 Safari/537.36","0.52","","197","","<img src = 'img/A1-B0-L1-W1.jpg' width = '600'>","0","39","","","","",""
"","html-keyboard-response","81","234035","0.0-3.0-1.38","full","Male","18","United States of America","","C924837","BA","freqGain","Mozilla/5.0 (Macintosh; Intel Mac OS X 10_13_6) AppleWebKit/537.36 (KHTML, like Gecko) Chrome/81.0.4044.138 Safari/537.36","0.52","","null","","You successfully harvested honey! You earned <b>1 </b>point.","","39","null","1","49","",""
"","html-button-response","82","234245","0.0-3.0-0.39","full","Male","18","United States of America","","C924837","BA","freqGain","Mozilla/5.0 (Macintosh; Intel Mac OS X 10_13_6) AppleWebKit/537.36 (KHTML, like Gecko) Chrome/81.0.4044.138 Safari/537.36","0.52","","208","","<img src = 'img/A0-B1-L0-W0.jpg' width = '600'>","0","40","","","","",""
"","html-keyboard-response","83","236252","0.0-3.0-1.39","full","Male","18","United States of America","","C924837","BA","freqGain","Mozilla/5.0 (Macintosh; Intel Mac OS X 10_13_6) AppleWebKit/537.36 (KHTML, like Gecko) Chrome/81.0.4044.138 Safari/537.36","0.52","","null","","You successfully harvested honey! You earned <b>1 </b>point.","","40","null","1","50","",""
"","html-button-response","84","236552","0.0-3.0-0.40","full","Male","18","United States of America","","C924837","BA","freqGain","Mozilla/5.0 (Macintosh; Intel Mac OS X 10_13_6) AppleWebKit/537.36 (KHTML, like Gecko) Chrome/81.0.4044.138 Safari/537.36","0.52","","297","","<img src = 'img/A1-B0-L1-W0.jpg' width = '600'>","0","41","","","","",""
"","html-keyboard-response","85","238557","0.0-3.0-1.40","full","Male","18","United States of America","","C924837","BA","freqGain","Mozilla/5.0 (Macintosh; Intel Mac OS X 10_13_6) AppleWebKit/537.36 (KHTML, like Gecko) Chrome/81.0.4044.138 Safari/537.36","0.52","","null","","You successfully harvested honey! You earned <b>1 </b>point.","","41","null","1","51","",""
"","html-button-response","86","238801","0.0-3.0-0.41","full","Male","18","United States of America","","C924837","BA","freqGain","Mozilla/5.0 (Macintosh; Intel Mac OS X 10_13_6) AppleWebKit/537.36 (KHTML, like Gecko) Chrome/81.0.4044.138 Safari/537.36","0.52","","242","","<img src = 'img/A0-B1-L0-W1.jpg' width = '600'>","0","42","","","","",""
"","html-keyboard-response","87","240806","0.0-3.0-1.41","full","Male","18","United States of America","","C924837","BA","freqGain","Mozilla/5.0 (Macintosh; Intel Mac OS X 10_13_6) AppleWebKit/537.36 (KHTML, like Gecko) Chrome/81.0.4044.138 Safari/537.36","0.52","","null","","You successfully harvested honey! You earned <b>1 </b>point.","","42","null","1","52","",""
"","html-button-response","88","241153","0.0-3.0-0.42","full","Male","18","United States of America","","C924837","BA","freqGain","Mozilla/5.0 (Macintosh; Intel Mac OS X 10_13_6) AppleWebKit/537.36 (KHTML, like Gecko) Chrome/81.0.4044.138 Safari/537.36","0.52","","344","","<img src = 'img/A0-B0-L1-W0.jpg' width = '600'>","0","43","","","","",""
"","html-keyboard-response","89","243157","0.0-3.0-1.42","full","Male","18","United States of America","","C924837","BA","freqGain","Mozilla/5.0 (Macintosh; Intel Mac OS X 10_13_6) AppleWebKit/537.36 (KHTML, like Gecko) Chrome/81.0.4044.138 Safari/537.36","0.52","","null","","You successfully harvested honey! You earned <b>1 </b>point.","","43","null","1","53","",""
"","html-button-response","90","243357","0.0-3.0-0.43","full","Male","18","United States of America","","C924837","BA","freqGain","Mozilla/5.0 (Macintosh; Intel Mac OS X 10_13_6) AppleWebKit/537.36 (KHTML, like Gecko) Chrome/81.0.4044.138 Safari/537.36","0.52","","198","","<img src = 'img/A0-B0-L0-W0.jpg' width = '600'>","0","44","","","","",""
"","html-keyboard-response","91","245359","0.0-3.0-1.43","full","Male","18","United States of America","","C924837","BA","freqGain","Mozilla/5.0 (Macintosh; Intel Mac OS X 10_13_6) AppleWebKit/537.36 (KHTML, like Gecko) Chrome/81.0.4044.138 Safari/537.36","0.52","","null","","You successfully harvested honey! You earned <b>1 </b>point.","","44","null","1","54","",""
"","html-button-response","92","245541","0.0-3.0-0.44","full","Male","18","United States of America","","C924837","BA","freqGain","Mozilla/5.0 (Macintosh; Intel Mac OS X 10_13_6) AppleWebKit/537.36 (KHTML, like Gecko) Chrome/81.0.4044.138 Safari/537.36","0.52","","179","","<img src = 'img/A0-B1-L1-W0.jpg' width = '600'>","0","45","","","","",""
"","html-keyboard-response","93","247548","0.0-3.0-1.44","full","Male","18","United States of America","","C924837","BA","freqGain","Mozilla/5.0 (Macintosh; Intel Mac OS X 10_13_6) AppleWebKit/537.36 (KHTML, like Gecko) Chrome/81.0.4044.138 Safari/537.36","0.52","","null","","You successfully harvested honey! You earned <b>1 </b>point.","","45","null","1","55","",""
"","html-button-response","94","247880","0.0-3.0-0.45","full","Male","18","United States of America","","C924837","BA","freqGain","Mozilla/5.0 (Macintosh; Intel Mac OS X 10_13_6) AppleWebKit/537.36 (KHTML, like Gecko) Chrome/81.0.4044.138 Safari/537.36","0.52","","330","","<img src = 'img/A1-B1-L1-W0.jpg' width = '600'>","0","46","","","","",""
"","html-keyboard-response","95","249886","0.0-3.0-1.45","full","Male","18","United States of America","","C924837","BA","freqGain","Mozilla/5.0 (Macintosh; Intel Mac OS X 10_13_6) AppleWebKit/537.36 (KHTML, like Gecko) Chrome/81.0.4044.138 Safari/537.36","0.52","","null","","Ouch, you were stung! You lost <b>-3 </b>points.","","46","null","-3","52","",""
"","html-button-response","96","250243","0.0-3.0-0.46","full","Male","18","United States of America","","C924837","BA","freqGain","Mozilla/5.0 (Macintosh; Intel Mac OS X 10_13_6) AppleWebKit/537.36 (KHTML, like Gecko) Chrome/81.0.4044.138 Safari/537.36","0.52","","355","","<img src = 'img/A1-B0-L0-W0.jpg' width = '600'>","0","47","","","","",""
"","html-keyboard-response","97","252246","0.0-3.0-1.46","full","Male","18","United States of America","","C924837","BA","freqGain","Mozilla/5.0 (Macintosh; Intel Mac OS X 10_13_6) AppleWebKit/537.36 (KHTML, like Gecko) Chrome/81.0.4044.138 Safari/537.36","0.52","","null","","You successfully harvested honey! You earned <b>1 </b>point.","","47","null","1","53","",""
"","html-button-response","98","252661","0.0-3.0-0.47","full","Male","18","United States of America","","C924837","BA","freqGain","Mozilla/5.0 (Macintosh; Intel Mac OS X 10_13_6) AppleWebKit/537.36 (KHTML, like Gecko) Chrome/81.0.4044.138 Safari/537.36","0.52","","414","","<img src = 'img/A1-B1-L0-W0.jpg' width = '600'>","0","48","","","","",""
"","html-keyboard-response","99","254668","0.0-3.0-1.47","full","Male","18","United States of America","","C924837","BA","freqGain","Mozilla/5.0 (Macintosh; Intel Mac OS X 10_13_6) AppleWebKit/537.36 (KHTML, like Gecko) Chrome/81.0.4044.138 Safari/537.36","0.52","","null","","Ouch, you were stung! You lost <b>-3 </b>points.","","48","null","-3","50","",""
"","html-button-response","100","255541","0.0-3.0-0.48","full","Male","18","United States of America","","C924837","BA","freqGain","Mozilla/5.0 (Macintosh; Intel Mac OS X 10_13_6) AppleWebKit/537.36 (KHTML, like Gecko) Chrome/81.0.4044.138 Safari/537.36","0.52","","871","","<img src = 'img/A0-B0-L1-W0.jpg' width = '600'>","0","49","","","","",""
"","html-keyboard-response","101","257548","0.0-3.0-1.48","full","Male","18","United States of America","","C924837","BA","freqGain","Mozilla/5.0 (Macintosh; Intel Mac OS X 10_13_6) AppleWebKit/537.36 (KHTML, like Gecko) Chrome/81.0.4044.138 Safari/537.36","0.52","","null","","You successfully harvested honey! You earned <b>1 </b>point.","","49","null","1","51","",""
"","html-button-response","102","257735","0.0-3.0-0.49","full","Male","18","United States of America","","C924837","BA","freqGain","Mozilla/5.0 (Macintosh; Intel Mac OS X 10_13_6) AppleWebKit/537.36 (KHTML, like Gecko) Chrome/81.0.4044.138 Safari/537.36","0.52","","184","","<img src = 'img/A1-B0-L0-W0.jpg' width = '600'>","0","50","","","","",""
"","html-keyboard-response","103","259738","0.0-3.0-1.49","full","Male","18","United States of America","","C924837","BA","freqGain","Mozilla/5.0 (Macintosh; Intel Mac OS X 10_13_6) AppleWebKit/537.36 (KHTML, like Gecko) Chrome/81.0.4044.138 Safari/537.36","0.52","","null","","You successfully harvested honey! You earned <b>1 </b>point.","","50","null","1","52","",""
"","html-button-response","104","259962","0.0-3.0-0.50","full","Male","18","United States of America","","C924837","BA","freqGain","Mozilla/5.0 (Macintosh; Intel Mac OS X 10_13_6) AppleWebKit/537.36 (KHTML, like Gecko) Chrome/81.0.4044.138 Safari/537.36","0.52","","220","","<img src = 'img/A0-B0-L0-W1.jpg' width = '600'>","0","51","","","","",""
"","html-keyboard-response","105","261968","0.0-3.0-1.50","full","Male","18","United States of America","","C924837","BA","freqGain","Mozilla/5.0 (Macintosh; Intel Mac OS X 10_13_6) AppleWebKit/537.36 (KHTML, like Gecko) Chrome/81.0.4044.138 Safari/537.36","0.52","","null","","You successfully harvested honey! You earned <b>1 </b>point.","","51","null","1","53","",""
"","html-button-response","106","262156","0.0-3.0-0.51","full","Male","18","United States of America","","C924837","BA","freqGain","Mozilla/5.0 (Macintosh; Intel Mac OS X 10_13_6) AppleWebKit/537.36 (KHTML, like Gecko) Chrome/81.0.4044.138 Safari/537.36","0.52","","186","","<img src = 'img/A0-B0-L1-W1.jpg' width = '600'>","0","52","","","","",""
"","html-keyboard-response","107","264160","0.0-3.0-1.51","full","Male","18","United States of America","","C924837","BA","freqGain","Mozilla/5.0 (Macintosh; Intel Mac OS X 10_13_6) AppleWebKit/537.36 (KHTML, like Gecko) Chrome/81.0.4044.138 Safari/537.36","0.52","","null","","You successfully harvested honey! You earned <b>1 </b>point.","","52","null","1","54","",""
"","html-button-response","108","264384","0.0-3.0-0.52","full","Male","18","United States of America","","C924837","BA","freqGain","Mozilla/5.0 (Macintosh; Intel Mac OS X 10_13_6) AppleWebKit/537.36 (KHTML, like Gecko) Chrome/81.0.4044.138 Safari/537.36","0.52","","221","","<img src = 'img/A1-B1-L1-W1.jpg' width = '600'>","0","53","","","","",""
"","html-keyboard-response","109","266392","0.0-3.0-1.52","full","Male","18","United States of America","","C924837","BA","freqGain","Mozilla/5.0 (Macintosh; Intel Mac OS X 10_13_6) AppleWebKit/537.36 (KHTML, like Gecko) Chrome/81.0.4044.138 Safari/537.36","0.52","","null","","Ouch, you were stung! You lost <b>-3 </b>points.","","53","null","-3","51","",""
"","html-button-response","110","266668","0.0-3.0-0.53","full","Male","18","United States of America","","C924837","BA","freqGain","Mozilla/5.0 (Macintosh; Intel Mac OS X 10_13_6) AppleWebKit/537.36 (KHTML, like Gecko) Chrome/81.0.4044.138 Safari/537.36","0.52","","273","","<img src = 'img/A1-B0-L1-W1.jpg' width = '600'>","0","54","","","","",""
"","html-keyboard-response","111","268671","0.0-3.0-1.53","full","Male","18","United States of America","","C924837","BA","freqGain","Mozilla/5.0 (Macintosh; Intel Mac OS X 10_13_6) AppleWebKit/537.36 (KHTML, like Gecko) Chrome/81.0.4044.138 Safari/537.36","0.52","","null","","You successfully harvested honey! You earned <b>1 </b>point.","","54","null","1","52","",""
"","html-button-response","112","268872","0.0-3.0-0.54","full","Male","18","United States of America","","C924837","BA","freqGain","Mozilla/5.0 (Macintosh; Intel Mac OS X 10_13_6) AppleWebKit/537.36 (KHTML, like Gecko) Chrome/81.0.4044.138 Safari/537.36","0.52","","195","","<img src = 'img/A1-B1-L0-W0.jpg' width = '600'>","0","55","","","","",""
"","html-keyboard-response","113","270878","0.0-3.0-1.54","full","Male","18","United States of America","","C924837","BA","freqGain","Mozilla/5.0 (Macintosh; Intel Mac OS X 10_13_6) AppleWebKit/537.36 (KHTML, like Gecko) Chrome/81.0.4044.138 Safari/537.36","0.52","","null","","Ouch, you were stung! You lost <b>-3 </b>points.","","55","null","-3","49","",""
"","html-button-response","114","271066","0.0-3.0-0.55","full","Male","18","United States of America","","C924837","BA","freqGain","Mozilla/5.0 (Macintosh; Intel Mac OS X 10_13_6) AppleWebKit/537.36 (KHTML, like Gecko) Chrome/81.0.4044.138 Safari/537.36","0.52","","186","","<img src = 'img/A0-B1-L1-W0.jpg' width = '600'>","0","56","","","","",""
"","html-keyboard-response","115","273070","0.0-3.0-1.55","full","Male","18","United States of America","","C924837","BA","freqGain","Mozilla/5.0 (Macintosh; Intel Mac OS X 10_13_6) AppleWebKit/537.36 (KHTML, like Gecko) Chrome/81.0.4044.138 Safari/537.36","0.52","","null","","You successfully harvested honey! You earned <b>1 </b>point.","","56","null","1","50","",""
"","html-button-response","116","273474","0.0-3.0-0.56","full","Male","18","United States of America","","C924837","BA","freqGain","Mozilla/5.0 (Macintosh; Intel Mac OS X 10_13_6) AppleWebKit/537.36 (KHTML, like Gecko) Chrome/81.0.4044.138 Safari/537.36","0.52","","401","","<img src = 'img/A0-B1-L1-W1.jpg' width = '600'>","0","57","","","","",""
"","html-keyboard-response","117","275479","0.0-3.0-1.56","full","Male","18","United States of America","","C924837","BA","freqGain","Mozilla/5.0 (Macintosh; Intel Mac OS X 10_13_6) AppleWebKit/537.36 (KHTML, like Gecko) Chrome/81.0.4044.138 Safari/537.36","0.52","","null","","You successfully harvested honey! You earned <b>1 </b>point.","","57","null","1","51","",""
"","html-button-response","118","276061","0.0-3.0-0.57","full","Male","18","United States of America","","C924837","BA","freqGain","Mozilla/5.0 (Macintosh; Intel Mac OS X 10_13_6) AppleWebKit/537.36 (KHTML, like Gecko) Chrome/81.0.4044.138 Safari/537.36","0.52","","580","","<img src = 'img/A0-B0-L0-W0.jpg' width = '600'>","0","58","","","","",""
"","html-keyboard-response","119","278064","0.0-3.0-1.57","full","Male","18","United States of America","","C924837","BA","freqGain","Mozilla/5.0 (Macintosh; Intel Mac OS X 10_13_6) AppleWebKit/537.36 (KHTML, like Gecko) Chrome/81.0.4044.138 Safari/537.36","0.52","","null","","You successfully harvested honey! You earned <b>1 </b>point.","","58","null","1","52","",""
"","html-button-response","120","278435","0.0-3.0-0.58","full","Male","18","United States of America","","C924837","BA","freqGain","Mozilla/5.0 (Macintosh; Intel Mac OS X 10_13_6) AppleWebKit/537.36 (KHTML, like Gecko) Chrome/81.0.4044.138 Safari/537.36","0.52","","369","","<img src = 'img/A1-B1-L1-W0.jpg' width = '600'>","0","59","","","","",""
"","html-keyboard-response","121","280438","0.0-3.0-1.58","full","Male","18","United States of America","","C924837","BA","freqGain","Mozilla/5.0 (Macintosh; Intel Mac OS X 10_13_6) AppleWebKit/537.36 (KHTML, like Gecko) Chrome/81.0.4044.138 Safari/537.36","0.52","","null","","Ouch, you were stung! You lost <b>-3 </b>points.","","59","null","-3","49","",""
"","html-button-response","122","280831","0.0-3.0-0.59","full","Male","18","United States of America","","C924837","BA","freqGain","Mozilla/5.0 (Macintosh; Intel Mac OS X 10_13_6) AppleWebKit/537.36 (KHTML, like Gecko) Chrome/81.0.4044.138 Safari/537.36","0.52","","392","","<img src = 'img/A1-B0-L0-W1.jpg' width = '600'>","0","60","","","","",""
"","html-keyboard-response","123","282837","0.0-3.0-1.59","full","Male","18","United States of America","","C924837","BA","freqGain","Mozilla/5.0 (Macintosh; Intel Mac OS X 10_13_6) AppleWebKit/537.36 (KHTML, like Gecko) Chrome/81.0.4044.138 Safari/537.36","0.52","","null","","You successfully harvested honey! You earned <b>1 </b>point.","","60","null","1","50","",""
"","html-button-response","124","283441","0.0-3.0-0.60","full","Male","18","United States of America","","C924837","BA","freqGain","Mozilla/5.0 (Macintosh; Intel Mac OS X 10_13_6) AppleWebKit/537.36 (KHTML, like Gecko) Chrome/81.0.4044.138 Safari/537.36","0.52","","602","","<img src = 'img/A0-B1-L0-W1.jpg' width = '600'>","0","61","","","","",""
"","html-keyboard-response","125","285444","0.0-3.0-1.60","full","Male","18","United States of America","","C924837","BA","freqGain","Mozilla/5.0 (Macintosh; Intel Mac OS X 10_13_6) AppleWebKit/537.36 (KHTML, like Gecko) Chrome/81.0.4044.138 Safari/537.36","0.52","","null","","You successfully harvested honey! You earned <b>1 </b>point.","","61","null","1","51","",""
"","html-button-response","126","285578","0.0-3.0-0.61","full","Male","18","United States of America","","C924837","BA","freqGain","Mozilla/5.0 (Macintosh; Intel Mac OS X 10_13_6) AppleWebKit/537.36 (KHTML, like Gecko) Chrome/81.0.4044.138 Safari/537.36","0.52","","132","","<img src = 'img/A1-B0-L1-W0.jpg' width = '600'>","0","62","","","","",""
"","html-keyboard-response","127","287583","0.0-3.0-1.61","full","Male","18","United States of America","","C924837","BA","freqGain","Mozilla/5.0 (Macintosh; Intel Mac OS X 10_13_6) AppleWebKit/537.36 (KHTML, like Gecko) Chrome/81.0.4044.138 Safari/537.36","0.52","","null","","You successfully harvested honey! You earned <b>1 </b>point.","","62","null","1","52","",""
"","html-button-response","128","288177","0.0-3.0-0.62","full","Male","18","United States of America","","C924837","BA","freqGain","Mozilla/5.0 (Macintosh; Intel Mac OS X 10_13_6) AppleWebKit/537.36 (KHTML, like Gecko) Chrome/81.0.4044.138 Safari/537.36","0.52","","592","","<img src = 'img/A0-B1-L0-W0.jpg' width = '600'>","0","63","","","","",""
"","html-keyboard-response","129","290179","0.0-3.0-1.62","full","Male","18","United States of America","","C924837","BA","freqGain","Mozilla/5.0 (Macintosh; Intel Mac OS X 10_13_6) AppleWebKit/537.36 (KHTML, like Gecko) Chrome/81.0.4044.138 Safari/537.36","0.52","","null","","You successfully harvested honey! You earned <b>1 </b>point.","","63","null","1","53","",""
"","html-button-response","130","291249","0.0-3.0-0.63","full","Male","18","United States of America","","C924837","BA","freqGain","Mozilla/5.0 (Macintosh; Intel Mac OS X 10_13_6) AppleWebKit/537.36 (KHTML, like Gecko) Chrome/81.0.4044.138 Safari/537.36","0.52","","1067","","<img src = 'img/A1-B1-L0-W1.jpg' width = '600'>","0","64","","","","",""
"","html-keyboard-response","131","293255","0.0-3.0-1.63","full","Male","18","United States of America","","C924837","BA","freqGain","Mozilla/5.0 (Macintosh; Intel Mac OS X 10_13_6) AppleWebKit/537.36 (KHTML, like Gecko) Chrome/81.0.4044.138 Safari/537.36","0.52","","null","","Ouch, you were stung! You lost <b>-3 </b>points.","","64","null","-3","50","",""
"","html-button-response","132","293757","0.0-3.0-0.64","full","Male","18","United States of America","","C924837","BA","freqGain","Mozilla/5.0 (Macintosh; Intel Mac OS X 10_13_6) AppleWebKit/537.36 (KHTML, like Gecko) Chrome/81.0.4044.138 Safari/537.36","0.52","","500","","<img src = 'img/A0-B0-L0-W1.jpg' width = '600'>","0","65","","","","",""
"","html-keyboard-response","133","295763","0.0-3.0-1.64","full","Male","18","United States of America","","C924837","BA","freqGain","Mozilla/5.0 (Macintosh; Intel Mac OS X 10_13_6) AppleWebKit/537.36 (KHTML, like Gecko) Chrome/81.0.4044.138 Safari/537.36","0.52","","null","","You successfully harvested honey! You earned <b>1 </b>point.","","65","null","1","51","",""
"","html-button-response","134","296389","0.0-3.0-0.65","full","Male","18","United States of America","","C924837","BA","freqGain","Mozilla/5.0 (Macintosh; Intel Mac OS X 10_13_6) AppleWebKit/537.36 (KHTML, like Gecko) Chrome/81.0.4044.138 Safari/537.36","0.52","","624","","<img src = 'img/A1-B1-L1-W0.jpg' width = '600'>","0","66","","","","",""
"","html-keyboard-response","135","298393","0.0-3.0-1.65","full","Male","18","United States of America","","C924837","BA","freqGain","Mozilla/5.0 (Macintosh; Intel Mac OS X 10_13_6) AppleWebKit/537.36 (KHTML, like Gecko) Chrome/81.0.4044.138 Safari/537.36","0.52","","null","","Ouch, you were stung! You lost <b>-3 </b>points.","","66","null","-3","48","",""
"","html-button-response","136","299157","0.0-3.0-0.66","full","Male","18","United States of America","","C924837","BA","freqGain","Mozilla/5.0 (Macintosh; Intel Mac OS X 10_13_6) AppleWebKit/537.36 (KHTML, like Gecko) Chrome/81.0.4044.138 Safari/537.36","0.52","","762","","<img src = 'img/A0-B1-L1-W0.jpg' width = '600'>","0","67","","","","",""
"","html-keyboard-response","137","301165","0.0-3.0-1.66","full","Male","18","United States of America","","C924837","BA","freqGain","Mozilla/5.0 (Macintosh; Intel Mac OS X 10_13_6) AppleWebKit/537.36 (KHTML, like Gecko) Chrome/81.0.4044.138 Safari/537.36","0.52","","null","","You successfully harvested honey! You earned <b>1 </b>point.","","67","null","1","49","",""
"","html-button-response","138","301452","0.0-3.0-0.67","full","Male","18","United States of America","","C924837","BA","freqGain","Mozilla/5.0 (Macintosh; Intel Mac OS X 10_13_6) AppleWebKit/537.36 (KHTML, like Gecko) Chrome/81.0.4044.138 Safari/537.36","0.52","","286","","<img src = 'img/A1-B1-L1-W1.jpg' width = '600'>","0","68","","","","",""
"","html-keyboard-response","139","303455","0.0-3.0-1.67","full","Male","18","United States of America","","C924837","BA","freqGain","Mozilla/5.0 (Macintosh; Intel Mac OS X 10_13_6) AppleWebKit/537.36 (KHTML, like Gecko) Chrome/81.0.4044.138 Safari/537.36","0.52","","null","","Ouch, you were stung! You lost <b>-3 </b>points.","","68","null","-3","46","",""
"","html-button-response","140","303724","0.0-3.0-0.68","full","Male","18","United States of America","","C924837","BA","freqGain","Mozilla/5.0 (Macintosh; Intel Mac OS X 10_13_6) AppleWebKit/537.36 (KHTML, like Gecko) Chrome/81.0.4044.138 Safari/537.36","0.52","","268","","<img src = 'img/A0-B1-L1-W1.jpg' width = '600'>","0","69","","","","",""
"","html-keyboard-response","141","305731","0.0-3.0-1.68","full","Male","18","United States of America","","C924837","BA","freqGain","Mozilla/5.0 (Macintosh; Intel Mac OS X 10_13_6) AppleWebKit/537.36 (KHTML, like Gecko) Chrome/81.0.4044.138 Safari/537.36","0.52","","null","","You successfully harvested honey! You earned <b>1 </b>point.","","69","null","1","47","",""
"","html-button-response","142","306773","0.0-3.0-0.69","full","Male","18","United States of America","","C924837","BA","freqGain","Mozilla/5.0 (Macintosh; Intel Mac OS X 10_13_6) AppleWebKit/537.36 (KHTML, like Gecko) Chrome/81.0.4044.138 Safari/537.36","0.52","","1041","","<img src = 'img/A0-B0-L0-W0.jpg' width = '600'>","0","70","","","","",""
"","html-keyboard-response","143","308778","0.0-3.0-1.69","full","Male","18","United States of America","","C924837","BA","freqGain","Mozilla/5.0 (Macintosh; Intel Mac OS X 10_13_6) AppleWebKit/537.36 (KHTML, like Gecko) Chrome/81.0.4044.138 Safari/537.36","0.52","","null","","You successfully harvested honey! You earned <b>1 </b>point.","","70","null","1","48","",""
"","html-button-response","144","312297","0.0-3.0-0.70","full","Male","18","United States of America","","C924837","BA","freqGain","Mozilla/5.0 (Macintosh; Intel Mac OS X 10_13_6) AppleWebKit/537.36 (KHTML, like Gecko) Chrome/81.0.4044.138 Safari/537.36","0.52","","3517","","<img src = 'img/A1-B0-L0-W1.jpg' width = '600'>","0","71","","","","",""
"","html-keyboard-response","145","314305","0.0-3.0-1.70","full","Male","18","United States of America","","C924837","BA","freqGain","Mozilla/5.0 (Macintosh; Intel Mac OS X 10_13_6) AppleWebKit/537.36 (KHTML, like Gecko) Chrome/81.0.4044.138 Safari/537.36","0.52","","null","","You successfully harvested honey! You earned <b>1 </b>point.","","71","null","1","49","",""
"","html-button-response","146","314830","0.0-3.0-0.71","full","Male","18","United States of America","","C924837","BA","freqGain","Mozilla/5.0 (Macintosh; Intel Mac OS X 10_13_6) AppleWebKit/537.36 (KHTML, like Gecko) Chrome/81.0.4044.138 Safari/537.36","0.52","","523","","<img src = 'img/A1-B0-L0-W0.jpg' width = '600'>","0","72","","","","",""
"","html-keyboard-response","147","316836","0.0-3.0-1.71","full","Male","18","United States of America","","C924837","BA","freqGain","Mozilla/5.0 (Macintosh; Intel Mac OS X 10_13_6) AppleWebKit/537.36 (KHTML, like Gecko) Chrome/81.0.4044.138 Safari/537.36","0.52","","null","","You successfully harvested honey! You earned <b>1 </b>point.","","72","null","1","50","",""
"","html-button-response","148","317056","0.0-3.0-0.72","full","Male","18","United States of America","","C924837","BA","freqGain","Mozilla/5.0 (Macintosh; Intel Mac OS X 10_13_6) AppleWebKit/537.36 (KHTML, like Gecko) Chrome/81.0.4044.138 Safari/537.36","0.52","","217","","<img src = 'img/A0-B1-L0-W1.jpg' width = '600'>","0","73","","","","",""
"","html-keyboard-response","149","319059","0.0-3.0-1.72","full","Male","18","United States of America","","C924837","BA","freqGain","Mozilla/5.0 (Macintosh; Intel Mac OS X 10_13_6) AppleWebKit/537.36 (KHTML, like Gecko) Chrome/81.0.4044.138 Safari/537.36","0.52","","null","","You successfully harvested honey! You earned <b>1 </b>point.","","73","null","1","51","",""
"","html-button-response","150","319238","0.0-3.0-0.73","full","Male","18","United States of America","","C924837","BA","freqGain","Mozilla/5.0 (Macintosh; Intel Mac OS X 10_13_6) AppleWebKit/537.36 (KHTML, like Gecko) Chrome/81.0.4044.138 Safari/537.36","0.52","","178","","<img src = 'img/A1-B1-L0-W0.jpg' width = '600'>","0","74","","","","",""
"","html-keyboard-response","151","321242","0.0-3.0-1.73","full","Male","18","United States of America","","C924837","BA","freqGain","Mozilla/5.0 (Macintosh; Intel Mac OS X 10_13_6) AppleWebKit/537.36 (KHTML, like Gecko) Chrome/81.0.4044.138 Safari/537.36","0.52","","null","","Ouch, you were stung! You lost <b>-3 </b>points.","","74","null","-3","48","",""
"","html-button-response","152","321454","0.0-3.0-0.74","full","Male","18","United States of America","","C924837","BA","freqGain","Mozilla/5.0 (Macintosh; Intel Mac OS X 10_13_6) AppleWebKit/537.36 (KHTML, like Gecko) Chrome/81.0.4044.138 Safari/537.36","0.52","","210","","<img src = 'img/A0-B0-L1-W1.jpg' width = '600'>","0","75","","","","",""
"","html-keyboard-response","153","323458","0.0-3.0-1.74","full","Male","18","United States of America","","C924837","BA","freqGain","Mozilla/5.0 (Macintosh; Intel Mac OS X 10_13_6) AppleWebKit/537.36 (KHTML, like Gecko) Chrome/81.0.4044.138 Safari/537.36","0.52","","null","","You successfully harvested honey! You earned <b>1 </b>point.","","75","null","1","49","",""
"","html-button-response","154","323569","0.0-3.0-0.75","full","Male","18","United States of America","","C924837","BA","freqGain","Mozilla/5.0 (Macintosh; Intel Mac OS X 10_13_6) AppleWebKit/537.36 (KHTML, like Gecko) Chrome/81.0.4044.138 Safari/537.36","0.52","","110","","<img src = 'img/A0-B1-L0-W0.jpg' width = '600'>","0","76","","","","",""
"","html-keyboard-response","155","325573","0.0-3.0-1.75","full","Male","18","United States of America","","C924837","BA","freqGain","Mozilla/5.0 (Macintosh; Intel Mac OS X 10_13_6) AppleWebKit/537.36 (KHTML, like Gecko) Chrome/81.0.4044.138 Safari/537.36","0.52","","null","","You successfully harvested honey! You earned <b>1 </b>point.","","76","null","1","50","",""
"","html-button-response","156","325786","0.0-3.0-0.76","full","Male","18","United States of America","","C924837","BA","freqGain","Mozilla/5.0 (Macintosh; Intel Mac OS X 10_13_6) AppleWebKit/537.36 (KHTML, like Gecko) Chrome/81.0.4044.138 Safari/537.36","0.52","","211","","<img src = 'img/A0-B0-L1-W0.jpg' width = '600'>","0","77","","","","",""
"","html-keyboard-response","157","327788","0.0-3.0-1.76","full","Male","18","United States of America","","C924837","BA","freqGain","Mozilla/5.0 (Macintosh; Intel Mac OS X 10_13_6) AppleWebKit/537.36 (KHTML, like Gecko) Chrome/81.0.4044.138 Safari/537.36","0.52","","null","","You successfully harvested honey! You earned <b>1 </b>point.","","77","null","1","51","",""
"","html-button-response","158","328216","0.0-3.0-0.77","full","Male","18","United States of America","","C924837","BA","freqGain","Mozilla/5.0 (Macintosh; Intel Mac OS X 10_13_6) AppleWebKit/537.36 (KHTML, like Gecko) Chrome/81.0.4044.138 Safari/537.36","0.52","","425","","<img src = 'img/A1-B0-L1-W1.jpg' width = '600'>","0","78","","","","",""
"","html-keyboard-response","159","330220","0.0-3.0-1.77","full","Male","18","United States of America","","C924837","BA","freqGain","Mozilla/5.0 (Macintosh; Intel Mac OS X 10_13_6) AppleWebKit/537.36 (KHTML, like Gecko) Chrome/81.0.4044.138 Safari/537.36","0.52","","null","","You successfully harvested honey! You earned <b>1 </b>point.","","78","null","1","52","",""
"","html-button-response","160","330522","0.0-3.0-0.78","full","Male","18","United States of America","","C924837","BA","freqGain","Mozilla/5.0 (Macintosh; Intel Mac OS X 10_13_6) AppleWebKit/537.36 (KHTML, like Gecko) Chrome/81.0.4044.138 Safari/537.36","0.52","","299","","<img src = 'img/A1-B1-L0-W1.jpg' width = '600'>","0","79","","","","",""
"","html-keyboard-response","161","332528","0.0-3.0-1.78","full","Male","18","United States of America","","C924837","BA","freqGain","Mozilla/5.0 (Macintosh; Intel Mac OS X 10_13_6) AppleWebKit/537.36 (KHTML, like Gecko) Chrome/81.0.4044.138 Safari/537.36","0.52","","null","","Ouch, you were stung! You lost <b>-3 </b>points.","","79","null","-3","49","",""
"","html-button-response","162","332682","0.0-3.0-0.79","full","Male","18","United States of America","","C924837","BA","freqGain","Mozilla/5.0 (Macintosh; Intel Mac OS X 10_13_6) AppleWebKit/537.36 (KHTML, like Gecko) Chrome/81.0.4044.138 Safari/537.36","0.52","","151","","<img src = 'img/A1-B0-L1-W0.jpg' width = '600'>","0","80","","","","",""
"","html-keyboard-response","163","334686","0.0-3.0-1.79","full","Male","18","United States of America","","C924837","BA","freqGain","Mozilla/5.0 (Macintosh; Intel Mac OS X 10_13_6) AppleWebKit/537.36 (KHTML, like Gecko) Chrome/81.0.4044.138 Safari/537.36","0.52","","null","","You successfully harvested honey! You earned <b>1 </b>point.","","80","null","1","50","",""
"","html-button-response","164","334864","0.0-3.0-0.80","full","Male","18","United States of America","","C924837","BA","freqGain","Mozilla/5.0 (Macintosh; Intel Mac OS X 10_13_6) AppleWebKit/537.36 (KHTML, like Gecko) Chrome/81.0.4044.138 Safari/537.36","0.52","","176","","<img src = 'img/A1-B1-L0-W0.jpg' width = '600'>","0","81","","","","",""
"","html-keyboard-response","165","336869","0.0-3.0-1.80","full","Male","18","United States of America","","C924837","BA","freqGain","Mozilla/5.0 (Macintosh; Intel Mac OS X 10_13_6) AppleWebKit/537.36 (KHTML, like Gecko) Chrome/81.0.4044.138 Safari/537.36","0.52","","null","","Ouch, you were stung! You lost <b>-3 </b>points.","","81","null","-3","47","",""
"","html-button-response","166","337227","0.0-3.0-0.81","full","Male","18","United States of America","","C924837","BA","freqGain","Mozilla/5.0 (Macintosh; Intel Mac OS X 10_13_6) AppleWebKit/537.36 (KHTML, like Gecko) Chrome/81.0.4044.138 Safari/537.36","0.52","","356","","<img src = 'img/A0-B0-L0-W0.jpg' width = '600'>","0","82","","","","",""
"","html-keyboard-response","167","339232","0.0-3.0-1.81","full","Male","18","United States of America","","C924837","BA","freqGain","Mozilla/5.0 (Macintosh; Intel Mac OS X 10_13_6) AppleWebKit/537.36 (KHTML, like Gecko) Chrome/81.0.4044.138 Safari/537.36","0.52","","null","","You successfully harvested honey! You earned <b>1 </b>point.","","82","null","1","48","",""
"","html-button-response","168","341233","0.0-3.0-0.82","full","Male","18","United States of America","","C924837","BA","freqGain","Mozilla/5.0 (Macintosh; Intel Mac OS X 10_13_6) AppleWebKit/537.36 (KHTML, like Gecko) Chrome/81.0.4044.138 Safari/537.36","0.52","","1999","","<img src = 'img/A1-B0-L1-W1.jpg' width = '600'>","0","83","","","","",""
"","html-keyboard-response","169","343237","0.0-3.0-1.82","full","Male","18","United States of America","","C924837","BA","freqGain","Mozilla/5.0 (Macintosh; Intel Mac OS X 10_13_6) AppleWebKit/537.36 (KHTML, like Gecko) Chrome/81.0.4044.138 Safari/537.36","0.52","","null","","You successfully harvested honey! You earned <b>1 </b>point.","","83","null","1","49","",""
"","html-button-response","170","343730","0.0-3.0-0.83","full","Male","18","United States of America","","C924837","BA","freqGain","Mozilla/5.0 (Macintosh; Intel Mac OS X 10_13_6) AppleWebKit/537.36 (KHTML, like Gecko) Chrome/81.0.4044.138 Safari/537.36","0.52","","490","","<img src = 'img/A1-B1-L0-W1.jpg' width = '600'>","0","84","","","","",""
"","html-keyboard-response","171","345734","0.0-3.0-1.83","full","Male","18","United States of America","","C924837","BA","freqGain","Mozilla/5.0 (Macintosh; Intel Mac OS X 10_13_6) AppleWebKit/537.36 (KHTML, like Gecko) Chrome/81.0.4044.138 Safari/537.36","0.52","","null","","Ouch, you were stung! You lost <b>-3 </b>points.","","84","null","-3","46","",""
"","html-button-response","172","346159","0.0-3.0-0.84","full","Male","18","United States of America","","C924837","BA","freqGain","Mozilla/5.0 (Macintosh; Intel Mac OS X 10_13_6) AppleWebKit/537.36 (KHTML, like Gecko) Chrome/81.0.4044.138 Safari/537.36","0.52","","423","","<img src = 'img/A0-B1-L1-W0.jpg' width = '600'>","0","85","","","","",""
"","html-keyboard-response","173","348163","0.0-3.0-1.84","full","Male","18","United States of America","","C924837","BA","freqGain","Mozilla/5.0 (Macintosh; Intel Mac OS X 10_13_6) AppleWebKit/537.36 (KHTML, like Gecko) Chrome/81.0.4044.138 Safari/537.36","0.52","","null","","You successfully harvested honey! You earned <b>1 </b>point.","","85","null","1","47","",""
"","html-button-response","174","348635","0.0-3.0-0.85","full","Male","18","United States of America","","C924837","BA","freqGain","Mozilla/5.0 (Macintosh; Intel Mac OS X 10_13_6) AppleWebKit/537.36 (KHTML, like Gecko) Chrome/81.0.4044.138 Safari/537.36","0.52","","470","","<img src = 'img/A1-B0-L0-W1.jpg' width = '600'>","0","86","","","","",""
"","html-keyboard-response","175","350640","0.0-3.0-1.85","full","Male","18","United States of America","","C924837","BA","freqGain","Mozilla/5.0 (Macintosh; Intel Mac OS X 10_13_6) AppleWebKit/537.36 (KHTML, like Gecko) Chrome/81.0.4044.138 Safari/537.36","0.52","","null","","You successfully harvested honey! You earned <b>1 </b>point.","","86","null","1","48","",""
"","html-button-response","176","350929","0.0-3.0-0.86","full","Male","18","United States of America","","C924837","BA","freqGain","Mozilla/5.0 (Macintosh; Intel Mac OS X 10_13_6) AppleWebKit/537.36 (KHTML, like Gecko) Chrome/81.0.4044.138 Safari/537.36","0.52","","287","","<img src = 'img/A0-B1-L0-W1.jpg' width = '600'>","0","87","","","","",""
"","html-keyboard-response","177","352936","0.0-3.0-1.86","full","Male","18","United States of America","","C924837","BA","freqGain","Mozilla/5.0 (Macintosh; Intel Mac OS X 10_13_6) AppleWebKit/537.36 (KHTML, like Gecko) Chrome/81.0.4044.138 Safari/537.36","0.52","","null","","You successfully harvested honey! You earned <b>1 </b>point.","","87","null","1","49","",""
"","html-button-response","178","353438","0.0-3.0-0.87","full","Male","18","United States of America","","C924837","BA","freqGain","Mozilla/5.0 (Macintosh; Intel Mac OS X 10_13_6) AppleWebKit/537.36 (KHTML, like Gecko) Chrome/81.0.4044.138 Safari/537.36","0.52","","500","","<img src = 'img/A0-B1-L0-W0.jpg' width = '600'>","0","88","","","","",""
"","html-keyboard-response","179","355441","0.0-3.0-1.87","full","Male","18","United States of America","","C924837","BA","freqGain","Mozilla/5.0 (Macintosh; Intel Mac OS X 10_13_6) AppleWebKit/537.36 (KHTML, like Gecko) Chrome/81.0.4044.138 Safari/537.36","0.52","","null","","You successfully harvested honey! You earned <b>1 </b>point.","","88","null","1","50","",""
"","html-button-response","180","355586","0.0-3.0-0.88","full","Male","18","United States of America","","C924837","BA","freqGain","Mozilla/5.0 (Macintosh; Intel Mac OS X 10_13_6) AppleWebKit/537.36 (KHTML, like Gecko) Chrome/81.0.4044.138 Safari/537.36","0.52","","144","","<img src = 'img/A0-B0-L0-W1.jpg' width = '600'>","0","89","","","","",""
"","html-keyboard-response","181","357589","0.0-3.0-1.88","full","Male","18","United States of America","","C924837","BA","freqGain","Mozilla/5.0 (Macintosh; Intel Mac OS X 10_13_6) AppleWebKit/537.36 (KHTML, like Gecko) Chrome/81.0.4044.138 Safari/537.36","0.52","","null","","You successfully harvested honey! You earned <b>1 </b>point.","","89","null","1","51","",""
"","html-button-response","182","357937","0.0-3.0-0.89","full","Male","18","United States of America","","C924837","BA","freqGain","Mozilla/5.0 (Macintosh; Intel Mac OS X 10_13_6) AppleWebKit/537.36 (KHTML, like Gecko) Chrome/81.0.4044.138 Safari/537.36","0.52","","346","","<img src = 'img/A0-B0-L1-W0.jpg' width = '600'>","0","90","","","","",""
"","html-keyboard-response","183","359939","0.0-3.0-1.89","full","Male","18","United States of America","","C924837","BA","freqGain","Mozilla/5.0 (Macintosh; Intel Mac OS X 10_13_6) AppleWebKit/537.36 (KHTML, like Gecko) Chrome/81.0.4044.138 Safari/537.36","0.52","","null","","You successfully harvested honey! You earned <b>1 </b>point.","","90","null","1","52","",""
"","html-button-response","184","360525","0.0-3.0-0.90","full","Male","18","United States of America","","C924837","BA","freqGain","Mozilla/5.0 (Macintosh; Intel Mac OS X 10_13_6) AppleWebKit/537.36 (KHTML, like Gecko) Chrome/81.0.4044.138 Safari/537.36","0.52","","585","","<img src = 'img/A1-B0-L0-W0.jpg' width = '600'>","0","91","","","","",""
"","html-keyboard-response","185","362529","0.0-3.0-1.90","full","Male","18","United States of America","","C924837","BA","freqGain","Mozilla/5.0 (Macintosh; Intel Mac OS X 10_13_6) AppleWebKit/537.36 (KHTML, like Gecko) Chrome/81.0.4044.138 Safari/537.36","0.52","","null","","You successfully harvested honey! You earned <b>1 </b>point.","","91","null","1","53","",""
"","html-button-response","186","363282","0.0-3.0-0.91","full","Male","18","United States of America","","C924837","BA","freqGain","Mozilla/5.0 (Macintosh; Intel Mac OS X 10_13_6) AppleWebKit/537.36 (KHTML, like Gecko) Chrome/81.0.4044.138 Safari/537.36","0.52","","751","","<img src = 'img/A0-B0-L1-W1.jpg' width = '600'>","0","92","","","","",""
"","html-keyboard-response","187","365285","0.0-3.0-1.91","full","Male","18","United States of America","","C924837","BA","freqGain","Mozilla/5.0 (Macintosh; Intel Mac OS X 10_13_6) AppleWebKit/537.36 (KHTML, like Gecko) Chrome/81.0.4044.138 Safari/537.36","0.52","","null","","You successfully harvested honey! You earned <b>1 </b>point.","","92","null","1","54","",""
"","html-button-response","188","365678","0.0-3.0-0.92","full","Male","18","United States of America","","C924837","BA","freqGain","Mozilla/5.0 (Macintosh; Intel Mac OS X 10_13_6) AppleWebKit/537.36 (KHTML, like Gecko) Chrome/81.0.4044.138 Safari/537.36","0.52","","390","","<img src = 'img/A0-B1-L1-W1.jpg' width = '600'>","0","93","","","","",""
"","html-keyboard-response","189","367680","0.0-3.0-1.92","full","Male","18","United States of America","","C924837","BA","freqGain","Mozilla/5.0 (Macintosh; Intel Mac OS X 10_13_6) AppleWebKit/537.36 (KHTML, like Gecko) Chrome/81.0.4044.138 Safari/537.36","0.52","","null","","You successfully harvested honey! You earned <b>1 </b>point.","","93","null","1","55","",""
"","html-button-response","190","368097","0.0-3.0-0.93","full","Male","18","United States of America","","C924837","BA","freqGain","Mozilla/5.0 (Macintosh; Intel Mac OS X 10_13_6) AppleWebKit/537.36 (KHTML, like Gecko) Chrome/81.0.4044.138 Safari/537.36","0.52","","413","","<img src = 'img/A1-B1-L1-W1.jpg' width = '600'>","0","94","","","","",""
"","html-keyboard-response","191","370101","0.0-3.0-1.93","full","Male","18","United States of America","","C924837","BA","freqGain","Mozilla/5.0 (Macintosh; Intel Mac OS X 10_13_6) AppleWebKit/537.36 (KHTML, like Gecko) Chrome/81.0.4044.138 Safari/537.36","0.52","","null","","Ouch, you were stung! You lost <b>-3 </b>points.","","94","null","-3","52","",""
"","html-button-response","192","370369","0.0-3.0-0.94","full","Male","18","United States of America","","C924837","BA","freqGain","Mozilla/5.0 (Macintosh; Intel Mac OS X 10_13_6) AppleWebKit/537.36 (KHTML, like Gecko) Chrome/81.0.4044.138 Safari/537.36","0.52","","265","","<img src = 'img/A1-B1-L1-W0.jpg' width = '600'>","0","95","","","","",""
"","html-keyboard-response","193","372376","0.0-3.0-1.94","full","Male","18","United States of America","","C924837","BA","freqGain","Mozilla/5.0 (Macintosh; Intel Mac OS X 10_13_6) AppleWebKit/537.36 (KHTML, like Gecko) Chrome/81.0.4044.138 Safari/537.36","0.52","","null","","Ouch, you were stung! You lost <b>-3 </b>points.","","95","null","-3","49","",""
"","html-button-response","194","372855","0.0-3.0-0.95","full","Male","18","United States of America","","C924837","BA","freqGain","Mozilla/5.0 (Macintosh; Intel Mac OS X 10_13_6) AppleWebKit/537.36 (KHTML, like Gecko) Chrome/81.0.4044.138 Safari/537.36","0.52","","477","","<img src = 'img/A1-B0-L1-W0.jpg' width = '600'>","0","96","","","","",""
"","html-keyboard-response","195","374859","0.0-3.0-1.95","full","Male","18","United States of America","","C924837","BA","freqGain","Mozilla/5.0 (Macintosh; Intel Mac OS X 10_13_6) AppleWebKit/537.36 (KHTML, like Gecko) Chrome/81.0.4044.138 Safari/537.36","0.52","","null","","You successfully harvested honey! You earned <b>1 </b>point.","","96","null","1","50","",""
"","html-button-response","196","375499","0.0-3.0-0.96","full","Male","18","United States of America","","C924837","BA","freqGain","Mozilla/5.0 (Macintosh; Intel Mac OS X 10_13_6) AppleWebKit/537.36 (KHTML, like Gecko) Chrome/81.0.4044.138 Safari/537.36","0.52","","638","","<img src = 'img/A1-B0-L1-W0.jpg' width = '600'>","0","97","","","","",""
"","html-keyboard-response","197","377507","0.0-3.0-1.96","full","Male","18","United States of America","","C924837","BA","freqGain","Mozilla/5.0 (Macintosh; Intel Mac OS X 10_13_6) AppleWebKit/537.36 (KHTML, like Gecko) Chrome/81.0.4044.138 Safari/537.36","0.52","","null","","You successfully harvested honey! You earned <b>1 </b>point.","","97","null","1","51","",""
"","html-button-response","198","377771","0.0-3.0-0.97","full","Male","18","United States of America","","C924837","BA","freqGain","Mozilla/5.0 (Macintosh; Intel Mac OS X 10_13_6) AppleWebKit/537.36 (KHTML, like Gecko) Chrome/81.0.4044.138 Safari/537.36","0.52","","263","","<img src = 'img/A0-B1-L1-W0.jpg' width = '600'>","0","98","","","","",""
"","html-keyboard-response","199","379776","0.0-3.0-1.97","full","Male","18","United States of America","","C924837","BA","freqGain","Mozilla/5.0 (Macintosh; Intel Mac OS X 10_13_6) AppleWebKit/537.36 (KHTML, like Gecko) Chrome/81.0.4044.138 Safari/537.36","0.52","","null","","You successfully harvested honey! You earned <b>1 </b>point.","","98","null","1","52","",""
"","html-button-response","200","379988","0.0-3.0-0.98","full","Male","18","United States of America","","C924837","BA","freqGain","Mozilla/5.0 (Macintosh; Intel Mac OS X 10_13_6) AppleWebKit/537.36 (KHTML, like Gecko) Chrome/81.0.4044.138 Safari/537.36","0.52","","209","","<img src = 'img/A0-B1-L0-W0.jpg' width = '600'>","0","99","","","","",""
"","html-keyboard-response","201","381993","0.0-3.0-1.98","full","Male","18","United States of America","","C924837","BA","freqGain","Mozilla/5.0 (Macintosh; Intel Mac OS X 10_13_6) AppleWebKit/537.36 (KHTML, like Gecko) Chrome/81.0.4044.138 Safari/537.36","0.52","","null","","You successfully harvested honey! You earned <b>1 </b>point.","","99","null","1","53","",""
"","html-button-response","202","382710","0.0-3.0-0.99","full","Male","18","United States of America","","C924837","BA","freqGain","Mozilla/5.0 (Macintosh; Intel Mac OS X 10_13_6) AppleWebKit/537.36 (KHTML, like Gecko) Chrome/81.0.4044.138 Safari/537.36","0.52","","714","","<img src = 'img/A1-B1-L1-W0.jpg' width = '600'>","0","100","","","","",""
"","html-keyboard-response","203","384715","0.0-3.0-1.99","full","Male","18","United States of America","","C924837","BA","freqGain","Mozilla/5.0 (Macintosh; Intel Mac OS X 10_13_6) AppleWebKit/537.36 (KHTML, like Gecko) Chrome/81.0.4044.138 Safari/537.36","0.52","","null","","Ouch, you were stung! You lost <b>-3 </b>points.","","100","null","-3","50","",""
"","html-button-response","204","385095","0.0-3.0-0.100","full","Male","18","United States of America","","C924837","BA","freqGain","Mozilla/5.0 (Macintosh; Intel Mac OS X 10_13_6) AppleWebKit/537.36 (KHTML, like Gecko) Chrome/81.0.4044.138 Safari/537.36","0.52","","377","","<img src = 'img/A0-B0-L0-W0.jpg' width = '600'>","0","101","","","","",""
"","html-keyboard-response","205","387102","0.0-3.0-1.100","full","Male","18","United States of America","","C924837","BA","freqGain","Mozilla/5.0 (Macintosh; Intel Mac OS X 10_13_6) AppleWebKit/537.36 (KHTML, like Gecko) Chrome/81.0.4044.138 Safari/537.36","0.52","","null","","You successfully harvested honey! You earned <b>1 </b>point.","","101","null","1","51","",""
"","html-button-response","206","387626","0.0-3.0-0.101","full","Male","18","United States of America","","C924837","BA","freqGain","Mozilla/5.0 (Macintosh; Intel Mac OS X 10_13_6) AppleWebKit/537.36 (KHTML, like Gecko) Chrome/81.0.4044.138 Safari/537.36","0.52","","521","","<img src = 'img/A0-B0-L1-W0.jpg' width = '600'>","0","102","","","","",""
"","html-keyboard-response","207","389633","0.0-3.0-1.101","full","Male","18","United States of America","","C924837","BA","freqGain","Mozilla/5.0 (Macintosh; Intel Mac OS X 10_13_6) AppleWebKit/537.36 (KHTML, like Gecko) Chrome/81.0.4044.138 Safari/537.36","0.52","","null","","You successfully harvested honey! You earned <b>1 </b>point.","","102","null","1","52","",""
"","html-button-response","208","390260","0.0-3.0-0.102","full","Male","18","United States of America","","C924837","BA","freqGain","Mozilla/5.0 (Macintosh; Intel Mac OS X 10_13_6) AppleWebKit/537.36 (KHTML, like Gecko) Chrome/81.0.4044.138 Safari/537.36","0.52","","624","","<img src = 'img/A1-B1-L0-W1.jpg' width = '600'>","0","103","","","","",""
"","html-keyboard-response","209","392262","0.0-3.0-1.102","full","Male","18","United States of America","","C924837","BA","freqGain","Mozilla/5.0 (Macintosh; Intel Mac OS X 10_13_6) AppleWebKit/537.36 (KHTML, like Gecko) Chrome/81.0.4044.138 Safari/537.36","0.52","","null","","Ouch, you were stung! You lost <b>-3 </b>points.","","103","null","-3","49","",""
"","html-button-response","210","392599","0.0-3.0-0.103","full","Male","18","United States of America","","C924837","BA","freqGain","Mozilla/5.0 (Macintosh; Intel Mac OS X 10_13_6) AppleWebKit/537.36 (KHTML, like Gecko) Chrome/81.0.4044.138 Safari/537.36","0.52","","335","","<img src = 'img/A0-B1-L0-W1.jpg' width = '600'>","0","104","","","","",""
"","html-keyboard-response","211","394602","0.0-3.0-1.103","full","Male","18","United States of America","","C924837","BA","freqGain","Mozilla/5.0 (Macintosh; Intel Mac OS X 10_13_6) AppleWebKit/537.36 (KHTML, like Gecko) Chrome/81.0.4044.138 Safari/537.36","0.52","","null","","You successfully harvested honey! You earned <b>1 </b>point.","","104","null","1","50","",""
"","html-button-response","212","396086","0.0-3.0-0.104","full","Male","18","United States of America","","C924837","BA","freqGain","Mozilla/5.0 (Macintosh; Intel Mac OS X 10_13_6) AppleWebKit/537.36 (KHTML, like Gecko) Chrome/81.0.4044.138 Safari/537.36","0.52","","1482","","<img src = 'img/A1-B1-L0-W0.jpg' width = '600'>","0","105","","","","",""
"","html-keyboard-response","213","398094","0.0-3.0-1.104","full","Male","18","United States of America","","C924837","BA","freqGain","Mozilla/5.0 (Macintosh; Intel Mac OS X 10_13_6) AppleWebKit/537.36 (KHTML, like Gecko) Chrome/81.0.4044.138 Safari/537.36","0.52","","null","","Ouch, you were stung! You lost <b>-3 </b>points.","","105","null","-3","47","",""
"","html-button-response","214","409203","0.0-3.0-0.105","full","Male","18","United States of America","","C924837","BA","freqGain","Mozilla/5.0 (Macintosh; Intel Mac OS X 10_13_6) AppleWebKit/537.36 (KHTML, like Gecko) Chrome/81.0.4044.138 Safari/537.36","0.52","","11108","","<img src = 'img/A0-B0-L1-W1.jpg' width = '600'>","0","106","","","","",""
"","html-keyboard-response","215","411210","0.0-3.0-1.105","full","Male","18","United States of America","","C924837","BA","freqGain","Mozilla/5.0 (Macintosh; Intel Mac OS X 10_13_6) AppleWebKit/537.36 (KHTML, like Gecko) Chrome/81.0.4044.138 Safari/537.36","0.52","","null","","You successfully harvested honey! You earned <b>1 </b>point.","","106","null","1","48","",""
"","html-button-response","216","411735","0.0-3.0-0.106","full","Male","18","United States of America","","C924837","BA","freqGain","Mozilla/5.0 (Macintosh; Intel Mac OS X 10_13_6) AppleWebKit/537.36 (KHTML, like Gecko) Chrome/81.0.4044.138 Safari/537.36","0.52","","523","","<img src = 'img/A0-B1-L1-W1.jpg' width = '600'>","0","107","","","","",""
"","html-keyboard-response","217","413742","0.0-3.0-1.106","full","Male","18","United States of America","","C924837","BA","freqGain","Mozilla/5.0 (Macintosh; Intel Mac OS X 10_13_6) AppleWebKit/537.36 (KHTML, like Gecko) Chrome/81.0.4044.138 Safari/537.36","0.52","","null","","You successfully harvested honey! You earned <b>1 </b>point.","","107","null","1","49","",""
"","html-button-response","218","413985","0.0-3.0-0.107","full","Male","18","United States of America","","C924837","BA","freqGain","Mozilla/5.0 (Macintosh; Intel Mac OS X 10_13_6) AppleWebKit/537.36 (KHTML, like Gecko) Chrome/81.0.4044.138 Safari/537.36","0.52","","241","","<img src = 'img/A0-B0-L0-W1.jpg' width = '600'>","0","108","","","","",""
"","html-keyboard-response","219","415988","0.0-3.0-1.107","full","Male","18","United States of America","","C924837","BA","freqGain","Mozilla/5.0 (Macintosh; Intel Mac OS X 10_13_6) AppleWebKit/537.36 (KHTML, like Gecko) Chrome/81.0.4044.138 Safari/537.36","0.52","","null","","You successfully harvested honey! You earned <b>1 </b>point.","","108","null","1","50","",""
"","html-button-response","220","416336","0.0-3.0-0.108","full","Male","18","United States of America","","C924837","BA","freqGain","Mozilla/5.0 (Macintosh; Intel Mac OS X 10_13_6) AppleWebKit/537.36 (KHTML, like Gecko) Chrome/81.0.4044.138 Safari/537.36","0.52","","346","","<img src = 'img/A1-B0-L0-W0.jpg' width = '600'>","0","109","","","","",""
"","html-keyboard-response","221","418344","0.0-3.0-1.108","full","Male","18","United States of America","","C924837","BA","freqGain","Mozilla/5.0 (Macintosh; Intel Mac OS X 10_13_6) AppleWebKit/537.36 (KHTML, like Gecko) Chrome/81.0.4044.138 Safari/537.36","0.52","","null","","You successfully harvested honey! You earned <b>1 </b>point.","","109","null","1","51","",""
"","html-button-response","222","418597","0.0-3.0-0.109","full","Male","18","United States of America","","C924837","BA","freqGain","Mozilla/5.0 (Macintosh; Intel Mac OS X 10_13_6) AppleWebKit/537.36 (KHTML, like Gecko) Chrome/81.0.4044.138 Safari/537.36","0.52","","250","","<img src = 'img/A1-B0-L0-W1.jpg' width = '600'>","0","110","","","","",""
"","html-keyboard-response","223","420605","0.0-3.0-1.109","full","Male","18","United States of America","","C924837","BA","freqGain","Mozilla/5.0 (Macintosh; Intel Mac OS X 10_13_6) AppleWebKit/537.36 (KHTML, like Gecko) Chrome/81.0.4044.138 Safari/537.36","0.52","","null","","You successfully harvested honey! You earned <b>1 </b>point.","","110","null","1","52","",""
"","html-button-response","224","421142","0.0-3.0-0.110","full","Male","18","United States of America","","C924837","BA","freqGain","Mozilla/5.0 (Macintosh; Intel Mac OS X 10_13_6) AppleWebKit/537.36 (KHTML, like Gecko) Chrome/81.0.4044.138 Safari/537.36","0.52","","536","","<img src = 'img/A1-B0-L1-W1.jpg' width = '600'>","0","111","","","","",""
"","html-keyboard-response","225","423146","0.0-3.0-1.110","full","Male","18","United States of America","","C924837","BA","freqGain","Mozilla/5.0 (Macintosh; Intel Mac OS X 10_13_6) AppleWebKit/537.36 (KHTML, like Gecko) Chrome/81.0.4044.138 Safari/537.36","0.52","","null","","You successfully harvested honey! You earned <b>1 </b>point.","","111","null","1","53","",""
"","html-button-response","226","423896","0.0-3.0-0.111","full","Male","18","United States of America","","C924837","BA","freqGain","Mozilla/5.0 (Macintosh; Intel Mac OS X 10_13_6) AppleWebKit/537.36 (KHTML, like Gecko) Chrome/81.0.4044.138 Safari/537.36","0.52","","748","","<img src = 'img/A1-B1-L1-W1.jpg' width = '600'>","0","112","","","","",""
"","html-keyboard-response","227","425902","0.0-3.0-1.111","full","Male","18","United States of America","","C924837","BA","freqGain","Mozilla/5.0 (Macintosh; Intel Mac OS X 10_13_6) AppleWebKit/537.36 (KHTML, like Gecko) Chrome/81.0.4044.138 Safari/537.36","0.52","","null","","Ouch, you were stung! You lost <b>-3 </b>points.","","112","null","-3","50","",""
"","html-button-response","228","426292","0.0-3.0-0.112","full","Male","18","United States of America","","C924837","BA","freqGain","Mozilla/5.0 (Macintosh; Intel Mac OS X 10_13_6) AppleWebKit/537.36 (KHTML, like Gecko) Chrome/81.0.4044.138 Safari/537.36","0.52","","387","","<img src = 'img/A1-B0-L1-W1.jpg' width = '600'>","0","113","","","","",""
"","html-keyboard-response","229","428295","0.0-3.0-1.112","full","Male","18","United States of America","","C924837","BA","freqGain","Mozilla/5.0 (Macintosh; Intel Mac OS X 10_13_6) AppleWebKit/537.36 (KHTML, like Gecko) Chrome/81.0.4044.138 Safari/537.36","0.52","","null","","You successfully harvested honey! You earned <b>1 </b>point.","","113","null","1","51","",""
"","html-button-response","230","428665","0.0-3.0-0.113","full","Male","18","United States of America","","C924837","BA","freqGain","Mozilla/5.0 (Macintosh; Intel Mac OS X 10_13_6) AppleWebKit/537.36 (KHTML, like Gecko) Chrome/81.0.4044.138 Safari/537.36","0.52","","368","","<img src = 'img/A1-B0-L1-W0.jpg' width = '600'>","0","114","","","","",""
"","html-keyboard-response","231","430669","0.0-3.0-1.113","full","Male","18","United States of America","","C924837","BA","freqGain","Mozilla/5.0 (Macintosh; Intel Mac OS X 10_13_6) AppleWebKit/537.36 (KHTML, like Gecko) Chrome/81.0.4044.138 Safari/537.36","0.52","","null","","You successfully harvested honey! You earned <b>1 </b>point.","","114","null","1","52","",""
"","html-button-response","232","431197","0.0-3.0-0.114","full","Male","18","United States of America","","C924837","BA","freqGain","Mozilla/5.0 (Macintosh; Intel Mac OS X 10_13_6) AppleWebKit/537.36 (KHTML, like Gecko) Chrome/81.0.4044.138 Safari/537.36","0.52","","525","","<img src = 'img/A1-B1-L0-W1.jpg' width = '600'>","0","115","","","","",""
"","html-keyboard-response","233","433205","0.0-3.0-1.114","full","Male","18","United States of America","","C924837","BA","freqGain","Mozilla/5.0 (Macintosh; Intel Mac OS X 10_13_6) AppleWebKit/537.36 (KHTML, like Gecko) Chrome/81.0.4044.138 Safari/537.36","0.52","","null","","Ouch, you were stung! You lost <b>-3 </b>points.","","115","null","-3","49","",""
"","html-button-response","234","433503","0.0-3.0-0.115","full","Male","18","United States of America","","C924837","BA","freqGain","Mozilla/5.0 (Macintosh; Intel Mac OS X 10_13_6) AppleWebKit/537.36 (KHTML, like Gecko) Chrome/81.0.4044.138 Safari/537.36","0.52","","297","","<img src = 'img/A1-B1-L1-W1.jpg' width = '600'>","0","116","","","","",""
"","html-keyboard-response","235","435507","0.0-3.0-1.115","full","Male","18","United States of America","","C924837","BA","freqGain","Mozilla/5.0 (Macintosh; Intel Mac OS X 10_13_6) AppleWebKit/537.36 (KHTML, like Gecko) Chrome/81.0.4044.138 Safari/537.36","0.52","","null","","Ouch, you were stung! You lost <b>-3 </b>points.","","116","null","-3","46","",""
"","html-button-response","236","435752","0.0-3.0-0.116","full","Male","18","United States of America","","C924837","BA","freqGain","Mozilla/5.0 (Macintosh; Intel Mac OS X 10_13_6) AppleWebKit/537.36 (KHTML, like Gecko) Chrome/81.0.4044.138 Safari/537.36","0.52","","244","","<img src = 'img/A0-B1-L1-W1.jpg' width = '600'>","0","117","","","","",""
"","html-keyboard-response","237","437754","0.0-3.0-1.116","full","Male","18","United States of America","","C924837","BA","freqGain","Mozilla/5.0 (Macintosh; Intel Mac OS X 10_13_6) AppleWebKit/537.36 (KHTML, like Gecko) Chrome/81.0.4044.138 Safari/537.36","0.52","","null","","You successfully harvested honey! You earned <b>1 </b>point.","","117","null","1","47","",""
"","html-button-response","238","438229","0.0-3.0-0.117","full","Male","18","United States of America","","C924837","BA","freqGain","Mozilla/5.0 (Macintosh; Intel Mac OS X 10_13_6) AppleWebKit/537.36 (KHTML, like Gecko) Chrome/81.0.4044.138 Safari/537.36","0.52","","472","","<img src = 'img/A0-B0-L1-W1.jpg' width = '600'>","0","118","","","","",""
"","html-keyboard-response","239","440237","0.0-3.0-1.117","full","Male","18","United States of America","","C924837","BA","freqGain","Mozilla/5.0 (Macintosh; Intel Mac OS X 10_13_6) AppleWebKit/537.36 (KHTML, like Gecko) Chrome/81.0.4044.138 Safari/537.36","0.52","","null","","You successfully harvested honey! You earned <b>1 </b>point.","","118","null","1","48","",""
"","html-button-response","240","440591","0.0-3.0-0.118","full","Male","18","United States of America","","C924837","BA","freqGain","Mozilla/5.0 (Macintosh; Intel Mac OS X 10_13_6) AppleWebKit/537.36 (KHTML, like Gecko) Chrome/81.0.4044.138 Safari/537.36","0.52","","352","","<img src = 'img/A0-B0-L1-W0.jpg' width = '600'>","0","119","","","","",""
"","html-keyboard-response","241","442595","0.0-3.0-1.118","full","Male","18","United States of America","","C924837","BA","freqGain","Mozilla/5.0 (Macintosh; Intel Mac OS X 10_13_6) AppleWebKit/537.36 (KHTML, like Gecko) Chrome/81.0.4044.138 Safari/537.36","0.52","","null","","You successfully harvested honey! You earned <b>1 </b>point.","","119","null","1","49","",""
"","html-button-response","242","442965","0.0-3.0-0.119","full","Male","18","United States of America","","C924837","BA","freqGain","Mozilla/5.0 (Macintosh; Intel Mac OS X 10_13_6) AppleWebKit/537.36 (KHTML, like Gecko) Chrome/81.0.4044.138 Safari/537.36","0.52","","367","","<img src = 'img/A0-B1-L1-W0.jpg' width = '600'>","0","120","","","","",""
"","html-keyboard-response","243","444968","0.0-3.0-1.119","full","Male","18","United States of America","","C924837","BA","freqGain","Mozilla/5.0 (Macintosh; Intel Mac OS X 10_13_6) AppleWebKit/537.36 (KHTML, like Gecko) Chrome/81.0.4044.138 Safari/537.36","0.52","","null","","You successfully harvested honey! You earned <b>1 </b>point.","","120","null","1","50","",""
"","html-button-response","244","445664","0.0-3.0-0.120","full","Male","18","United States of America","","C924837","BA","freqGain","Mozilla/5.0 (Macintosh; Intel Mac OS X 10_13_6) AppleWebKit/537.36 (KHTML, like Gecko) Chrome/81.0.4044.138 Safari/537.36","0.52","","693","","<img src = 'img/A1-B1-L1-W0.jpg' width = '600'>","0","121","","","","",""
"","html-keyboard-response","245","447667","0.0-3.0-1.120","full","Male","18","United States of America","","C924837","BA","freqGain","Mozilla/5.0 (Macintosh; Intel Mac OS X 10_13_6) AppleWebKit/537.36 (KHTML, like Gecko) Chrome/81.0.4044.138 Safari/537.36","0.52","","null","","Ouch, you were stung! You lost <b>-3 </b>points.","","121","null","-3","47","",""
"","html-button-response","246","448016","0.0-3.0-0.121","full","Male","18","United States of America","","C924837","BA","freqGain","Mozilla/5.0 (Macintosh; Intel Mac OS X 10_13_6) AppleWebKit/537.36 (KHTML, like Gecko) Chrome/81.0.4044.138 Safari/537.36","0.52","","347","","<img src = 'img/A1-B1-L0-W0.jpg' width = '600'>","0","122","","","","",""
"","html-keyboard-response","247","450019","0.0-3.0-1.121","full","Male","18","United States of America","","C924837","BA","freqGain","Mozilla/5.0 (Macintosh; Intel Mac OS X 10_13_6) AppleWebKit/537.36 (KHTML, like Gecko) Chrome/81.0.4044.138 Safari/537.36","0.52","","null","","Ouch, you were stung! You lost <b>-3 </b>points.","","122","null","-3","44","",""
"","html-button-response","248","450479","0.0-3.0-0.122","full","Male","18","United States of America","","C924837","BA","freqGain","Mozilla/5.0 (Macintosh; Intel Mac OS X 10_13_6) AppleWebKit/537.36 (KHTML, like Gecko) Chrome/81.0.4044.138 Safari/537.36","0.52","","458","","<img src = 'img/A0-B0-L0-W0.jpg' width = '600'>","0","123","","","","",""
"","html-keyboard-response","249","452485","0.0-3.0-1.122","full","Male","18","United States of America","","C924837","BA","freqGain","Mozilla/5.0 (Macintosh; Intel Mac OS X 10_13_6) AppleWebKit/537.36 (KHTML, like Gecko) Chrome/81.0.4044.138 Safari/537.36","0.52","","null","","You successfully harvested honey! You earned <b>1 </b>point.","","123","null","1","45","",""
"","html-button-response","250","452741","0.0-3.0-0.123","full","Male","18","United States of America","","C924837","BA","freqGain","Mozilla/5.0 (Macintosh; Intel Mac OS X 10_13_6) AppleWebKit/537.36 (KHTML, like Gecko) Chrome/81.0.4044.138 Safari/537.36","0.52","","254","","<img src = 'img/A0-B1-L0-W0.jpg' width = '600'>","0","124","","","","",""
"","html-keyboard-response","251","454746","0.0-3.0-1.123","full","Male","18","United States of America","","C924837","BA","freqGain","Mozilla/5.0 (Macintosh; Intel Mac OS X 10_13_6) AppleWebKit/537.36 (KHTML, like Gecko) Chrome/81.0.4044.138 Safari/537.36","0.52","","null","","You successfully harvested honey! You earned <b>1 </b>point.","","124","null","1","46","",""
"","html-button-response","252","455182","0.0-3.0-0.124","full","Male","18","United States of America","","C924837","BA","freqGain","Mozilla/5.0 (Macintosh; Intel Mac OS X 10_13_6) AppleWebKit/537.36 (KHTML, like Gecko) Chrome/81.0.4044.138 Safari/537.36","0.52","","434","","<img src = 'img/A1-B0-L0-W0.jpg' width = '600'>","0","125","","","","",""
"","html-keyboard-response","253","457187","0.0-3.0-1.124","full","Male","18","United States of America","","C924837","BA","freqGain","Mozilla/5.0 (Macintosh; Intel Mac OS X 10_13_6) AppleWebKit/537.36 (KHTML, like Gecko) Chrome/81.0.4044.138 Safari/537.36","0.52","","null","","You successfully harvested honey! You earned <b>1 </b>point.","","125","null","1","47","",""
"","html-button-response","254","457386","0.0-3.0-0.125","full","Male","18","United States of America","","C924837","BA","freqGain","Mozilla/5.0 (Macintosh; Intel Mac OS X 10_13_6) AppleWebKit/537.36 (KHTML, like Gecko) Chrome/81.0.4044.138 Safari/537.36","0.52","","198","","<img src = 'img/A0-B1-L0-W1.jpg' width = '600'>","0","126","","","","",""
"","html-keyboard-response","255","459394","0.0-3.0-1.125","full","Male","18","United States of America","","C924837","BA","freqGain","Mozilla/5.0 (Macintosh; Intel Mac OS X 10_13_6) AppleWebKit/537.36 (KHTML, like Gecko) Chrome/81.0.4044.138 Safari/537.36","0.52","","null","","You successfully harvested honey! You earned <b>1 </b>point.","","126","null","1","48","",""
"","html-button-response","256","461335","0.0-3.0-0.126","full","Male","18","United States of America","","C924837","BA","freqGain","Mozilla/5.0 (Macintosh; Intel Mac OS X 10_13_6) AppleWebKit/537.36 (KHTML, like Gecko) Chrome/81.0.4044.138 Safari/537.36","0.52","","1939","","<img src = 'img/A1-B0-L0-W1.jpg' width = '600'>","0","127","","","","",""
"","html-keyboard-response","257","463339","0.0-3.0-1.126","full","Male","18","United States of America","","C924837","BA","freqGain","Mozilla/5.0 (Macintosh; Intel Mac OS X 10_13_6) AppleWebKit/537.36 (KHTML, like Gecko) Chrome/81.0.4044.138 Safari/537.36","0.52","","null","","You successfully harvested honey! You earned <b>1 </b>point.","","127","null","1","49","",""
"","html-button-response","258","464947","0.0-3.0-0.127","full","Male","18","United States of America","","C924837","BA","freqGain","Mozilla/5.0 (Macintosh; Intel Mac OS X 10_13_6) AppleWebKit/537.36 (KHTML, like Gecko) Chrome/81.0.4044.138 Safari/537.36","0.52","","1606","","<img src = 'img/A0-B0-L0-W1.jpg' width = '600'>","0","128","","","","",""
"","html-keyboard-response","259","466951","0.0-3.0-1.127","full","Male","18","United States of America","","C924837","BA","freqGain","Mozilla/5.0 (Macintosh; Intel Mac OS X 10_13_6) AppleWebKit/537.36 (KHTML, like Gecko) Chrome/81.0.4044.138 Safari/537.36","0.52","","null","","You successfully harvested honey! You earned <b>1 </b>point.","","128","null","1","50","",""
"","external-html","260","472080","0.0-4.0","full","Male","18","United States of America","","C924837","BA","freqGain","Mozilla/5.0 (Macintosh; Intel Mac OS X 10_13_6) AppleWebKit/537.36 (KHTML, like Gecko) Chrome/81.0.4044.138 Safari/537.36","0.52","","5119.490000011865","","","","","","","","./pages/testinstr-fg.html",""
"","html-button-response","261","476264","0.0-5.0-0.0","full","Male","18","United States of America","","C924837","BA","freqGain","Mozilla/5.0 (Macintosh; Intel Mac OS X 10_13_6) AppleWebKit/537.36 (KHTML, like Gecko) Chrome/81.0.4044.138 Safari/537.36","0.52","","4179","","<img src = 'img/A1-B0-L1-W1.jpg' width = '600'>","0","","","","","","1"
"","html-keyboard-response","262","477667","0.0-5.0-1.0","full","Male","18","United States of America","","C924837","BA","freqGain","Mozilla/5.0 (Macintosh; Intel Mac OS X 10_13_6) AppleWebKit/537.36 (KHTML, like Gecko) Chrome/81.0.4044.138 Safari/537.36","0.52","","null","","","","","null","1","51","","1"
"","html-button-response","263","478401","0.0-5.0-0.1","full","Male","18","United States of America","","C924837","BA","freqGain","Mozilla/5.0 (Macintosh; Intel Mac OS X 10_13_6) AppleWebKit/537.36 (KHTML, like Gecko) Chrome/81.0.4044.138 Safari/537.36","0.52","","732","","<img src = 'img/A1-B1-L0-W1.jpg' width = '600'>","0","","","","","","2"
"","html-keyboard-response","264","479804","0.0-5.0-1.1","full","Male","18","United States of America","","C924837","BA","freqGain","Mozilla/5.0 (Macintosh; Intel Mac OS X 10_13_6) AppleWebKit/537.36 (KHTML, like Gecko) Chrome/81.0.4044.138 Safari/537.36","0.52","","null","","","","","null","-3","48","","2"
"","html-button-response","265","480966","0.0-5.0-0.2","full","Male","18","United States of America","","C924837","BA","freqGain","Mozilla/5.0 (Macintosh; Intel Mac OS X 10_13_6) AppleWebKit/537.36 (KHTML, like Gecko) Chrome/81.0.4044.138 Safari/537.36","0.52","","1158","","<img src = 'img/A0-B0-L0-W0.jpg' width = '600'>","1","","","","","","3"
"","html-keyboard-response","266","482372","0.0-5.0-1.2","full","Male","18","United States of America","","C924837","BA","freqGain","Mozilla/5.0 (Macintosh; Intel Mac OS X 10_13_6) AppleWebKit/537.36 (KHTML, like Gecko) Chrome/81.0.4044.138 Safari/537.36","0.52","","null","","","","","null","0","48","","3"
"","html-button-response","267","482542","0.0-5.0-0.3","full","Male","18","United States of America","","C924837","BA","freqGain","Mozilla/5.0 (Macintosh; Intel Mac OS X 10_13_6) AppleWebKit/537.36 (KHTML, like Gecko) Chrome/81.0.4044.138 Safari/537.36","0.52","","167","","<img src = 'img/A0-B0-L1-W0.jpg' width = '600'>","1","","","","","","4"
"","html-keyboard-response","268","483945","0.0-5.0-1.3","full","Male","18","United States of America","","C924837","BA","freqGain","Mozilla/5.0 (Macintosh; Intel Mac OS X 10_13_6) AppleWebKit/537.36 (KHTML, like Gecko) Chrome/81.0.4044.138 Safari/537.36","0.52","","null","","","","","null","0","48","","4"
"","html-button-response","269","484432","0.0-5.0-0.4","full","Male","18","United States of America","","C924837","BA","freqGain","Mozilla/5.0 (Macintosh; Intel Mac OS X 10_13_6) AppleWebKit/537.36 (KHTML, like Gecko) Chrome/81.0.4044.138 Safari/537.36","0.52","","485","","<img src = 'img/A0-B0-L1-W1.jpg' width = '600'>","1","","","","","","5"
"","html-keyboard-response","270","485835","0.0-5.0-1.4","full","Male","18","United States of America","","C924837","BA","freqGain","Mozilla/5.0 (Macintosh; Intel Mac OS X 10_13_6) AppleWebKit/537.36 (KHTML, like Gecko) Chrome/81.0.4044.138 Safari/537.36","0.52","","null","","","","","null","0","48","","5"
"","html-button-response","271","486276","0.0-5.0-0.5","full","Male","18","United States of America","","C924837","BA","freqGain","Mozilla/5.0 (Macintosh; Intel Mac OS X 10_13_6) AppleWebKit/537.36 (KHTML, like Gecko) Chrome/81.0.4044.138 Safari/537.36","0.52","","440","","<img src = 'img/A0-B0-L0-W1.jpg' width = '600'>","1","","","","","","6"
"","html-keyboard-response","272","487679","0.0-5.0-1.5","full","Male","18","United States of America","","C924837","BA","freqGain","Mozilla/5.0 (Macintosh; Intel Mac OS X 10_13_6) AppleWebKit/537.36 (KHTML, like Gecko) Chrome/81.0.4044.138 Safari/537.36","0.52","","null","","","","","null","0","48","","6"
"","html-button-response","273","488572","0.0-5.0-0.6","full","Male","18","United States of America","","C924837","BA","freqGain","Mozilla/5.0 (Macintosh; Intel Mac OS X 10_13_6) AppleWebKit/537.36 (KHTML, like Gecko) Chrome/81.0.4044.138 Safari/537.36","0.52","","890","","<img src = 'img/A1-B1-L0-W0.jpg' width = '600'>","0","","","","","","7"
"","html-keyboard-response","274","489975","0.0-5.0-1.6","full","Male","18","United States of America","","C924837","BA","freqGain","Mozilla/5.0 (Macintosh; Intel Mac OS X 10_13_6) AppleWebKit/537.36 (KHTML, like Gecko) Chrome/81.0.4044.138 Safari/537.36","0.52","","null","","","","","null","-3","45","","7"
"","html-button-response","275","491215","0.0-5.0-0.7","full","Male","18","United States of America","","C924837","BA","freqGain","Mozilla/5.0 (Macintosh; Intel Mac OS X 10_13_6) AppleWebKit/537.36 (KHTML, like Gecko) Chrome/81.0.4044.138 Safari/537.36","0.52","","1238","","<img src = 'img/A0-B1-L0-W1.jpg' width = '600'>","0","","","","","","8"
"","html-keyboard-response","276","492622","0.0-5.0-1.7","full","Male","18","United States of America","","C924837","BA","freqGain","Mozilla/5.0 (Macintosh; Intel Mac OS X 10_13_6) AppleWebKit/537.36 (KHTML, like Gecko) Chrome/81.0.4044.138 Safari/537.36","0.52","","null","","","","","null","1","46","","8"
"","html-button-response","277","494241","0.0-5.0-0.8","full","Male","18","United States of America","","C924837","BA","freqGain","Mozilla/5.0 (Macintosh; Intel Mac OS X 10_13_6) AppleWebKit/537.36 (KHTML, like Gecko) Chrome/81.0.4044.138 Safari/537.36","0.52","","1617","","<img src = 'img/A0-B1-L1-W1.jpg' width = '600'>","0","","","","","","9"
"","html-keyboard-response","278","495644","0.0-5.0-1.8","full","Male","18","United States of America","","C924837","BA","freqGain","Mozilla/5.0 (Macintosh; Intel Mac OS X 10_13_6) AppleWebKit/537.36 (KHTML, like Gecko) Chrome/81.0.4044.138 Safari/537.36","0.52","","null","","","","","null","1","47","","9"
