"success","trial_type","trial_index","time_elapsed","internal_node_id","feedback","gender","age","country","email","turkcode","relevantDim","condition","browserinfo","bonus","view_history","rt","responses","stimulus","button_pressed","i","key_press","earnedThis","earnedCumulative","url","k"
"true","fullscreen","0","61793","0.0-0.0","partial","Male","33","United States of America","","C505658","WA","freqGain","Mozilla/5.0 (Windows NT 6.3; WOW64) AppleWebKit/537.36 (KHTML, like Gecko) Chrome/78.0.3904.99 Safari/537.36 Vivaldi/2.9.1705.41","0.98","","","","","","","","","","",""
"","instructions","1","235459","0.0-1.0-0.0","partial","Male","33","United States of America","","C505658","WA","freqGain","Mozilla/5.0 (Windows NT 6.3; WOW64) AppleWebKit/537.36 (KHTML, like Gecko) Chrome/78.0.3904.99 Safari/537.36 Vivaldi/2.9.1705.41","0.98","[{""page_index"":0,""viewing_time"":27721},{""page_index"":1,""viewing_time"":98233},{""page_index"":2,""viewing_time"":47710}]","173665","","","","","","","","",""
"","survey-html-form","2","256581","0.0-1.0-1.0","partial","Male","33","United States of America","","C505658","WA","freqGain","Mozilla/5.0 (Windows NT 6.3; WOW64) AppleWebKit/537.36 (KHTML, like Gecko) Chrome/78.0.3904.99 Safari/537.36 Vivaldi/2.9.1705.41","0.98","","21120.84000010509","{""legs"":""checked"",""body"":""checked"",""wings"":""checked"",""change"":""no"",""telldangerous"":""feature"",""avoidinfo"":""infoPlusBonus""}","","","","","","","",""
"","html-button-response","3","258157","0.0-1.0-2.0-0.0","partial","Male","33","United States of America","","C505658","WA","freqGain","Mozilla/5.0 (Windows NT 6.3; WOW64) AppleWebKit/537.36 (KHTML, like Gecko) Chrome/78.0.3904.99 Safari/537.36 Vivaldi/2.9.1705.41","0.98","","1574","","Oh no! One of your answers was incorrect. Let's try again.","0","","","","","",""
"","instructions","4","268286","0.0-1.1-0.1","partial","Male","33","United States of America","","C505658","WA","freqGain","Mozilla/5.0 (Windows NT 6.3; WOW64) AppleWebKit/537.36 (KHTML, like Gecko) Chrome/78.0.3904.99 Safari/537.36 Vivaldi/2.9.1705.41","0.98","[{""page_index"":0,""viewing_time"":1680},{""page_index"":1,""viewing_time"":3671},{""page_index"":2,""viewing_time"":4777}]","10128","","","","","","","","",""
"","survey-html-form","5","289840","0.0-1.1-1.1","partial","Male","33","United States of America","","C505658","WA","freqGain","Mozilla/5.0 (Windows NT 6.3; WOW64) AppleWebKit/537.36 (KHTML, like Gecko) Chrome/78.0.3904.99 Safari/537.36 Vivaldi/2.9.1705.41","0.98","","21552.830000058748","{""body"":""checked"",""wings"":""checked"",""antennae"":""checked"",""change"":""no"",""telldangerous"":""feature"",""avoidinfo"":""infoPlusBonus""}","","","","","","","",""
"","html-button-response","6","291160","0.0-1.1-2.1-0.1","partial","Male","33","United States of America","","C505658","WA","freqGain","Mozilla/5.0 (Windows NT 6.3; WOW64) AppleWebKit/537.36 (KHTML, like Gecko) Chrome/78.0.3904.99 Safari/537.36 Vivaldi/2.9.1705.41","0.98","","1320","","Oh no! One of your answers was incorrect. Let's try again.","0","","","","","",""
"","instructions","7","319834","0.0-1.2-0.2","partial","Male","33","United States of America","","C505658","WA","freqGain","Mozilla/5.0 (Windows NT 6.3; WOW64) AppleWebKit/537.36 (KHTML, like Gecko) Chrome/78.0.3904.99 Safari/537.36 Vivaldi/2.9.1705.41","0.98","[{""page_index"":0,""viewing_time"":4528},{""page_index"":1,""viewing_time"":15034},{""page_index"":2,""viewing_time"":9112}]","28674","","","","","","","","",""
"","survey-html-form","8","337958","0.0-1.2-1.2","partial","Male","33","United States of America","","C505658","WA","freqGain","Mozilla/5.0 (Windows NT 6.3; WOW64) AppleWebKit/537.36 (KHTML, like Gecko) Chrome/78.0.3904.99 Safari/537.36 Vivaldi/2.9.1705.41","0.98","","18121.785000083037","{""legs"":""checked"",""body"":""checked"",""wings"":""checked"",""antennae"":""checked"",""change"":""no"",""telldangerous"":""feature"",""avoidinfo"":""noInfo""}","","","","","","","",""
"","html-button-response","9","339365","0.0-2.0","partial","Male","33","United States of America","","C505658","WA","freqGain","Mozilla/5.0 (Windows NT 6.3; WOW64) AppleWebKit/537.36 (KHTML, like Gecko) Chrome/78.0.3904.99 Safari/537.36 Vivaldi/2.9.1705.41","0.98","","1407","","<p>Well done! This is now the last page of instructions.</p> <p>You're going to start experiment now.</p>","0","","","","","",""
"","html-button-response","10","341756","0.0-3.0-0.0","partial","Male","33","United States of America","","C505658","WA","freqGain","Mozilla/5.0 (Windows NT 6.3; WOW64) AppleWebKit/537.36 (KHTML, like Gecko) Chrome/78.0.3904.99 Safari/537.36 Vivaldi/2.9.1705.41","0.98","","2390","","<img src = 'img/A0-B0-L0-W1.jpg' width = '600'>","0","1","","","","",""
"","html-keyboard-response","11","343758","0.0-3.0-1.0","partial","Male","33","United States of America","","C505658","WA","freqGain","Mozilla/5.0 (Windows NT 6.3; WOW64) AppleWebKit/537.36 (KHTML, like Gecko) Chrome/78.0.3904.99 Safari/537.36 Vivaldi/2.9.1705.41","0.98","","null","","Ouch, you were stung! You lost <b>-1 </b>point.","","1","null","-1","49","",""
"","html-button-response","12","345151","0.0-3.0-0.1","partial","Male","33","United States of America","","C505658","WA","freqGain","Mozilla/5.0 (Windows NT 6.3; WOW64) AppleWebKit/537.36 (KHTML, like Gecko) Chrome/78.0.3904.99 Safari/537.36 Vivaldi/2.9.1705.41","0.98","","1392","","<img src = 'img/A1-B1-L1-W1.jpg' width = '600'>","0","2","","","","",""
"","html-keyboard-response","13","347153","0.0-3.0-1.1","partial","Male","33","United States of America","","C505658","WA","freqGain","Mozilla/5.0 (Windows NT 6.3; WOW64) AppleWebKit/537.36 (KHTML, like Gecko) Chrome/78.0.3904.99 Safari/537.36 Vivaldi/2.9.1705.41","0.98","","null","","You successfully harvested honey! You earned <b>3 </b>points.","","2","null","3","52","",""
"","html-button-response","14","348182","0.0-3.0-0.2","partial","Male","33","United States of America","","C505658","WA","freqGain","Mozilla/5.0 (Windows NT 6.3; WOW64) AppleWebKit/537.36 (KHTML, like Gecko) Chrome/78.0.3904.99 Safari/537.36 Vivaldi/2.9.1705.41","0.98","","1029","","<img src = 'img/A0-B0-L1-W0.jpg' width = '600'>","0","3","","","","",""
"","html-keyboard-response","15","350184","0.0-3.0-1.2","partial","Male","33","United States of America","","C505658","WA","freqGain","Mozilla/5.0 (Windows NT 6.3; WOW64) AppleWebKit/537.36 (KHTML, like Gecko) Chrome/78.0.3904.99 Safari/537.36 Vivaldi/2.9.1705.41","0.98","","null","","Ouch, you were stung! You lost <b>-1 </b>point.","","3","null","-1","51","",""
"","html-button-response","16","351509","0.0-3.0-0.3","partial","Male","33","United States of America","","C505658","WA","freqGain","Mozilla/5.0 (Windows NT 6.3; WOW64) AppleWebKit/537.36 (KHTML, like Gecko) Chrome/78.0.3904.99 Safari/537.36 Vivaldi/2.9.1705.41","0.98","","1325","","<img src = 'img/A0-B1-L1-W0.jpg' width = '600'>","0","4","","","","",""
"","html-keyboard-response","17","353511","0.0-3.0-1.3","partial","Male","33","United States of America","","C505658","WA","freqGain","Mozilla/5.0 (Windows NT 6.3; WOW64) AppleWebKit/537.36 (KHTML, like Gecko) Chrome/78.0.3904.99 Safari/537.36 Vivaldi/2.9.1705.41","0.98","","null","","Ouch, you were stung! You lost <b>-1 </b>point.","","4","null","-1","50","",""
"","html-button-response","18","354358","0.0-3.0-0.4","partial","Male","33","United States of America","","C505658","WA","freqGain","Mozilla/5.0 (Windows NT 6.3; WOW64) AppleWebKit/537.36 (KHTML, like Gecko) Chrome/78.0.3904.99 Safari/537.36 Vivaldi/2.9.1705.41","0.98","","847","","<img src = 'img/A1-B0-L1-W1.jpg' width = '600'>","0","5","","","","",""
"","html-keyboard-response","19","356359","0.0-3.0-1.4","partial","Male","33","United States of America","","C505658","WA","freqGain","Mozilla/5.0 (Windows NT 6.3; WOW64) AppleWebKit/537.36 (KHTML, like Gecko) Chrome/78.0.3904.99 Safari/537.36 Vivaldi/2.9.1705.41","0.98","","null","","You successfully harvested honey! You earned <b>3 </b>points.","","5","null","3","53","",""
"","html-button-response","20","358246","0.0-3.0-0.5","partial","Male","33","United States of America","","C505658","WA","freqGain","Mozilla/5.0 (Windows NT 6.3; WOW64) AppleWebKit/537.36 (KHTML, like Gecko) Chrome/78.0.3904.99 Safari/537.36 Vivaldi/2.9.1705.41","0.98","","1886","","<img src = 'img/A0-B1-L0-W0.jpg' width = '600'>","1","6","","","","",""
"","html-keyboard-response","21","360248","0.0-3.0-1.5","partial","Male","33","United States of America","","C505658","WA","freqGain","Mozilla/5.0 (Windows NT 6.3; WOW64) AppleWebKit/537.36 (KHTML, like Gecko) Chrome/78.0.3904.99 Safari/537.36 Vivaldi/2.9.1705.41","0.98","","null","","You avoided this hive. You earned <b>0 </b>points.","","6","null","0","53","",""
"","html-button-response","22","361320","0.0-3.0-0.6","partial","Male","33","United States of America","","C505658","WA","freqGain","Mozilla/5.0 (Windows NT 6.3; WOW64) AppleWebKit/537.36 (KHTML, like Gecko) Chrome/78.0.3904.99 Safari/537.36 Vivaldi/2.9.1705.41","0.98","","1070","","<img src = 'img/A1-B0-L0-W0.jpg' width = '600'>","0","7","","","","",""
"","html-keyboard-response","23","363321","0.0-3.0-1.6","partial","Male","33","United States of America","","C505658","WA","freqGain","Mozilla/5.0 (Windows NT 6.3; WOW64) AppleWebKit/537.36 (KHTML, like Gecko) Chrome/78.0.3904.99 Safari/537.36 Vivaldi/2.9.1705.41","0.98","","null","","Ouch, you were stung! You lost <b>-1 </b>point.","","7","null","-1","52","",""
"","html-button-response","24","364711","0.0-3.0-0.7","partial","Male","33","United States of America","","C505658","WA","freqGain","Mozilla/5.0 (Windows NT 6.3; WOW64) AppleWebKit/537.36 (KHTML, like Gecko) Chrome/78.0.3904.99 Safari/537.36 Vivaldi/2.9.1705.41","0.98","","1390","","<img src = 'img/A1-B0-L1-W0.jpg' width = '600'>","0","8","","","","",""
"","html-keyboard-response","25","366712","0.0-3.0-1.7","partial","Male","33","United States of America","","C505658","WA","freqGain","Mozilla/5.0 (Windows NT 6.3; WOW64) AppleWebKit/537.36 (KHTML, like Gecko) Chrome/78.0.3904.99 Safari/537.36 Vivaldi/2.9.1705.41","0.98","","null","","Ouch, you were stung! You lost <b>-1 </b>point.","","8","null","-1","51","",""
"","html-button-response","26","367663","0.0-3.0-0.8","partial","Male","33","United States of America","","C505658","WA","freqGain","Mozilla/5.0 (Windows NT 6.3; WOW64) AppleWebKit/537.36 (KHTML, like Gecko) Chrome/78.0.3904.99 Safari/537.36 Vivaldi/2.9.1705.41","0.98","","950","","<img src = 'img/A0-B1-L0-W1.jpg' width = '600'>","0","9","","","","",""
"","html-keyboard-response","27","369665","0.0-3.0-1.8","partial","Male","33","United States of America","","C505658","WA","freqGain","Mozilla/5.0 (Windows NT 6.3; WOW64) AppleWebKit/537.36 (KHTML, like Gecko) Chrome/78.0.3904.99 Safari/537.36 Vivaldi/2.9.1705.41","0.98","","null","","Ouch, you were stung! You lost <b>-1 </b>point.","","9","null","-1","50","",""
"","html-button-response","28","371296","0.0-3.0-0.9","partial","Male","33","United States of America","","C505658","WA","freqGain","Mozilla/5.0 (Windows NT 6.3; WOW64) AppleWebKit/537.36 (KHTML, like Gecko) Chrome/78.0.3904.99 Safari/537.36 Vivaldi/2.9.1705.41","0.98","","1630","","<img src = 'img/A1-B1-L0-W0.jpg' width = '600'>","0","10","","","","",""
"","html-keyboard-response","29","373298","0.0-3.0-1.9","partial","Male","33","United States of America","","C505658","WA","freqGain","Mozilla/5.0 (Windows NT 6.3; WOW64) AppleWebKit/537.36 (KHTML, like Gecko) Chrome/78.0.3904.99 Safari/537.36 Vivaldi/2.9.1705.41","0.98","","null","","Ouch, you were stung! You lost <b>-1 </b>point.","","10","null","-1","49","",""
"","html-button-response","30","374625","0.0-3.0-0.10","partial","Male","33","United States of America","","C505658","WA","freqGain","Mozilla/5.0 (Windows NT 6.3; WOW64) AppleWebKit/537.36 (KHTML, like Gecko) Chrome/78.0.3904.99 Safari/537.36 Vivaldi/2.9.1705.41","0.98","","1326","","<img src = 'img/A1-B0-L0-W1.jpg' width = '600'>","0","11","","","","",""
"","html-keyboard-response","31","376627","0.0-3.0-1.10","partial","Male","33","United States of America","","C505658","WA","freqGain","Mozilla/5.0 (Windows NT 6.3; WOW64) AppleWebKit/537.36 (KHTML, like Gecko) Chrome/78.0.3904.99 Safari/537.36 Vivaldi/2.9.1705.41","0.98","","null","","You successfully harvested honey! You earned <b>3 </b>points.","","11","null","3","52","",""
"","html-button-response","32","377617","0.0-3.0-0.11","partial","Male","33","United States of America","","C505658","WA","freqGain","Mozilla/5.0 (Windows NT 6.3; WOW64) AppleWebKit/537.36 (KHTML, like Gecko) Chrome/78.0.3904.99 Safari/537.36 Vivaldi/2.9.1705.41","0.98","","989","","<img src = 'img/A0-B1-L1-W1.jpg' width = '600'>","0","12","","","","",""
"","html-keyboard-response","33","379618","0.0-3.0-1.11","partial","Male","33","United States of America","","C505658","WA","freqGain","Mozilla/5.0 (Windows NT 6.3; WOW64) AppleWebKit/537.36 (KHTML, like Gecko) Chrome/78.0.3904.99 Safari/537.36 Vivaldi/2.9.1705.41","0.98","","null","","Ouch, you were stung! You lost <b>-1 </b>point.","","12","null","-1","51","",""
"","html-button-response","34","380921","0.0-3.0-0.12","partial","Male","33","United States of America","","C505658","WA","freqGain","Mozilla/5.0 (Windows NT 6.3; WOW64) AppleWebKit/537.36 (KHTML, like Gecko) Chrome/78.0.3904.99 Safari/537.36 Vivaldi/2.9.1705.41","0.98","","1302","","<img src = 'img/A1-B1-L0-W1.jpg' width = '600'>","0","13","","","","",""
"","html-keyboard-response","35","382923","0.0-3.0-1.12","partial","Male","33","United States of America","","C505658","WA","freqGain","Mozilla/5.0 (Windows NT 6.3; WOW64) AppleWebKit/537.36 (KHTML, like Gecko) Chrome/78.0.3904.99 Safari/537.36 Vivaldi/2.9.1705.41","0.98","","null","","You successfully harvested honey! You earned <b>3 </b>points.","","13","null","3","54","",""
"","html-button-response","36","385352","0.0-3.0-0.13","partial","Male","33","United States of America","","C505658","WA","freqGain","Mozilla/5.0 (Windows NT 6.3; WOW64) AppleWebKit/537.36 (KHTML, like Gecko) Chrome/78.0.3904.99 Safari/537.36 Vivaldi/2.9.1705.41","0.98","","2429","","<img src = 'img/A0-B0-L0-W0.jpg' width = '600'>","0","14","","","","",""
"","html-keyboard-response","37","387354","0.0-3.0-1.13","partial","Male","33","United States of America","","C505658","WA","freqGain","Mozilla/5.0 (Windows NT 6.3; WOW64) AppleWebKit/537.36 (KHTML, like Gecko) Chrome/78.0.3904.99 Safari/537.36 Vivaldi/2.9.1705.41","0.98","","null","","Ouch, you were stung! You lost <b>-1 </b>point.","","14","null","-1","53","",""
"","html-button-response","38","388330","0.0-3.0-0.14","partial","Male","33","United States of America","","C505658","WA","freqGain","Mozilla/5.0 (Windows NT 6.3; WOW64) AppleWebKit/537.36 (KHTML, like Gecko) Chrome/78.0.3904.99 Safari/537.36 Vivaldi/2.9.1705.41","0.98","","975","","<img src = 'img/A0-B0-L1-W1.jpg' width = '600'>","0","15","","","","",""
"","html-keyboard-response","39","390331","0.0-3.0-1.14","partial","Male","33","United States of America","","C505658","WA","freqGain","Mozilla/5.0 (Windows NT 6.3; WOW64) AppleWebKit/537.36 (KHTML, like Gecko) Chrome/78.0.3904.99 Safari/537.36 Vivaldi/2.9.1705.41","0.98","","null","","Ouch, you were stung! You lost <b>-1 </b>point.","","15","null","-1","52","",""
"","html-button-response","40","392594","0.0-3.0-0.15","partial","Male","33","United States of America","","C505658","WA","freqGain","Mozilla/5.0 (Windows NT 6.3; WOW64) AppleWebKit/537.36 (KHTML, like Gecko) Chrome/78.0.3904.99 Safari/537.36 Vivaldi/2.9.1705.41","0.98","","2262","","<img src = 'img/A1-B1-L1-W0.jpg' width = '600'>","0","16","","","","",""
"","html-keyboard-response","41","394595","0.0-3.0-1.15","partial","Male","33","United States of America","","C505658","WA","freqGain","Mozilla/5.0 (Windows NT 6.3; WOW64) AppleWebKit/537.36 (KHTML, like Gecko) Chrome/78.0.3904.99 Safari/537.36 Vivaldi/2.9.1705.41","0.98","","null","","Ouch, you were stung! You lost <b>-1 </b>point.","","16","null","-1","51","",""
"","html-button-response","42","395555","0.0-3.0-0.16","partial","Male","33","United States of America","","C505658","WA","freqGain","Mozilla/5.0 (Windows NT 6.3; WOW64) AppleWebKit/537.36 (KHTML, like Gecko) Chrome/78.0.3904.99 Safari/537.36 Vivaldi/2.9.1705.41","0.98","","958","","<img src = 'img/A1-B0-L0-W0.jpg' width = '600'>","0","17","","","","",""
"","html-keyboard-response","43","397557","0.0-3.0-1.16","partial","Male","33","United States of America","","C505658","WA","freqGain","Mozilla/5.0 (Windows NT 6.3; WOW64) AppleWebKit/537.36 (KHTML, like Gecko) Chrome/78.0.3904.99 Safari/537.36 Vivaldi/2.9.1705.41","0.98","","null","","Ouch, you were stung! You lost <b>-1 </b>point.","","17","null","-1","50","",""
"","html-button-response","44","414477","0.0-3.0-0.17","partial","Male","33","United States of America","","C505658","WA","freqGain","Mozilla/5.0 (Windows NT 6.3; WOW64) AppleWebKit/537.36 (KHTML, like Gecko) Chrome/78.0.3904.99 Safari/537.36 Vivaldi/2.9.1705.41","0.98","","16918","","<img src = 'img/A1-B1-L1-W0.jpg' width = '600'>","1","18","","","","",""
"","html-keyboard-response","45","416478","0.0-3.0-1.17","partial","Male","33","United States of America","","C505658","WA","freqGain","Mozilla/5.0 (Windows NT 6.3; WOW64) AppleWebKit/537.36 (KHTML, like Gecko) Chrome/78.0.3904.99 Safari/537.36 Vivaldi/2.9.1705.41","0.98","","null","","You avoided this hive. You earned <b>0 </b>points.","","18","null","0","50","",""
"","html-button-response","46","417820","0.0-3.0-0.18","partial","Male","33","United States of America","","C505658","WA","freqGain","Mozilla/5.0 (Windows NT 6.3; WOW64) AppleWebKit/537.36 (KHTML, like Gecko) Chrome/78.0.3904.99 Safari/537.36 Vivaldi/2.9.1705.41","0.98","","1341","","<img src = 'img/A1-B1-L1-W1.jpg' width = '600'>","0","19","","","","",""
"","html-keyboard-response","47","419822","0.0-3.0-1.18","partial","Male","33","United States of America","","C505658","WA","freqGain","Mozilla/5.0 (Windows NT 6.3; WOW64) AppleWebKit/537.36 (KHTML, like Gecko) Chrome/78.0.3904.99 Safari/537.36 Vivaldi/2.9.1705.41","0.98","","null","","You successfully harvested honey! You earned <b>3 </b>points.","","19","null","3","53","",""
"","html-button-response","48","424110","0.0-3.0-0.19","partial","Male","33","United States of America","","C505658","WA","freqGain","Mozilla/5.0 (Windows NT 6.3; WOW64) AppleWebKit/537.36 (KHTML, like Gecko) Chrome/78.0.3904.99 Safari/537.36 Vivaldi/2.9.1705.41","0.98","","4287","","<img src = 'img/A0-B1-L0-W0.jpg' width = '600'>","1","20","","","","",""
"","html-keyboard-response","49","426111","0.0-3.0-1.19","partial","Male","33","United States of America","","C505658","WA","freqGain","Mozilla/5.0 (Windows NT 6.3; WOW64) AppleWebKit/537.36 (KHTML, like Gecko) Chrome/78.0.3904.99 Safari/537.36 Vivaldi/2.9.1705.41","0.98","","null","","You avoided this hive. You earned <b>0 </b>points.","","20","null","0","53","",""
"","html-button-response","50","427630","0.0-3.0-0.20","partial","Male","33","United States of America","","C505658","WA","freqGain","Mozilla/5.0 (Windows NT 6.3; WOW64) AppleWebKit/537.36 (KHTML, like Gecko) Chrome/78.0.3904.99 Safari/537.36 Vivaldi/2.9.1705.41","0.98","","1519","","<img src = 'img/A0-B0-L0-W1.jpg' width = '600'>","0","21","","","","",""
"","html-keyboard-response","51","429632","0.0-3.0-1.20","partial","Male","33","United States of America","","C505658","WA","freqGain","Mozilla/5.0 (Windows NT 6.3; WOW64) AppleWebKit/537.36 (KHTML, like Gecko) Chrome/78.0.3904.99 Safari/537.36 Vivaldi/2.9.1705.41","0.98","","null","","Ouch, you were stung! You lost <b>-1 </b>point.","","21","null","-1","52","",""
"","html-button-response","52","430318","0.0-3.0-0.21","partial","Male","33","United States of America","","C505658","WA","freqGain","Mozilla/5.0 (Windows NT 6.3; WOW64) AppleWebKit/537.36 (KHTML, like Gecko) Chrome/78.0.3904.99 Safari/537.36 Vivaldi/2.9.1705.41","0.98","","686","","<img src = 'img/A1-B1-L0-W0.jpg' width = '600'>","1","22","","","","",""
"","html-keyboard-response","53","432320","0.0-3.0-1.21","partial","Male","33","United States of America","","C505658","WA","freqGain","Mozilla/5.0 (Windows NT 6.3; WOW64) AppleWebKit/537.36 (KHTML, like Gecko) Chrome/78.0.3904.99 Safari/537.36 Vivaldi/2.9.1705.41","0.98","","null","","You avoided this hive. You earned <b>0 </b>points.","","22","null","0","52","",""
"","html-button-response","54","433535","0.0-3.0-0.22","partial","Male","33","United States of America","","C505658","WA","freqGain","Mozilla/5.0 (Windows NT 6.3; WOW64) AppleWebKit/537.36 (KHTML, like Gecko) Chrome/78.0.3904.99 Safari/537.36 Vivaldi/2.9.1705.41","0.98","","1215","","<img src = 'img/A1-B0-L1-W1.jpg' width = '600'>","0","23","","","","",""
"","html-keyboard-response","55","435537","0.0-3.0-1.22","partial","Male","33","United States of America","","C505658","WA","freqGain","Mozilla/5.0 (Windows NT 6.3; WOW64) AppleWebKit/537.36 (KHTML, like Gecko) Chrome/78.0.3904.99 Safari/537.36 Vivaldi/2.9.1705.41","0.98","","null","","You successfully harvested honey! You earned <b>3 </b>points.","","23","null","3","55","",""
"","html-button-response","56","437511","0.0-3.0-0.23","partial","Male","33","United States of America","","C505658","WA","freqGain","Mozilla/5.0 (Windows NT 6.3; WOW64) AppleWebKit/537.36 (KHTML, like Gecko) Chrome/78.0.3904.99 Safari/537.36 Vivaldi/2.9.1705.41","0.98","","1974","","<img src = 'img/A0-B1-L0-W1.jpg' width = '600'>","0","24","","","","",""
"","html-keyboard-response","57","439513","0.0-3.0-1.23","partial","Male","33","United States of America","","C505658","WA","freqGain","Mozilla/5.0 (Windows NT 6.3; WOW64) AppleWebKit/537.36 (KHTML, like Gecko) Chrome/78.0.3904.99 Safari/537.36 Vivaldi/2.9.1705.41","0.98","","null","","Ouch, you were stung! You lost <b>-1 </b>point.","","24","null","-1","54","",""
"","html-button-response","58","440847","0.0-3.0-0.24","partial","Male","33","United States of America","","C505658","WA","freqGain","Mozilla/5.0 (Windows NT 6.3; WOW64) AppleWebKit/537.36 (KHTML, like Gecko) Chrome/78.0.3904.99 Safari/537.36 Vivaldi/2.9.1705.41","0.98","","1332","","<img src = 'img/A0-B0-L1-W1.jpg' width = '600'>","0","25","","","","",""
"","html-keyboard-response","59","442848","0.0-3.0-1.24","partial","Male","33","United States of America","","C505658","WA","freqGain","Mozilla/5.0 (Windows NT 6.3; WOW64) AppleWebKit/537.36 (KHTML, like Gecko) Chrome/78.0.3904.99 Safari/537.36 Vivaldi/2.9.1705.41","0.98","","null","","Ouch, you were stung! You lost <b>-1 </b>point.","","25","null","-1","53","",""
"","html-button-response","60","444009","0.0-3.0-0.25","partial","Male","33","United States of America","","C505658","WA","freqGain","Mozilla/5.0 (Windows NT 6.3; WOW64) AppleWebKit/537.36 (KHTML, like Gecko) Chrome/78.0.3904.99 Safari/537.36 Vivaldi/2.9.1705.41","0.98","","1159","","<img src = 'img/A0-B1-L1-W1.jpg' width = '600'>","0","26","","","","",""
"","html-keyboard-response","61","446010","0.0-3.0-1.25","partial","Male","33","United States of America","","C505658","WA","freqGain","Mozilla/5.0 (Windows NT 6.3; WOW64) AppleWebKit/537.36 (KHTML, like Gecko) Chrome/78.0.3904.99 Safari/537.36 Vivaldi/2.9.1705.41","0.98","","null","","Ouch, you were stung! You lost <b>-1 </b>point.","","26","null","-1","52","",""
"","html-button-response","62","446752","0.0-3.0-0.26","partial","Male","33","United States of America","","C505658","WA","freqGain","Mozilla/5.0 (Windows NT 6.3; WOW64) AppleWebKit/537.36 (KHTML, like Gecko) Chrome/78.0.3904.99 Safari/537.36 Vivaldi/2.9.1705.41","0.98","","742","","<img src = 'img/A0-B0-L1-W0.jpg' width = '600'>","1","27","","","","",""
"","html-keyboard-response","63","448753","0.0-3.0-1.26","partial","Male","33","United States of America","","C505658","WA","freqGain","Mozilla/5.0 (Windows NT 6.3; WOW64) AppleWebKit/537.36 (KHTML, like Gecko) Chrome/78.0.3904.99 Safari/537.36 Vivaldi/2.9.1705.41","0.98","","null","","You avoided this hive. You earned <b>0 </b>points.","","27","null","0","52","",""
"","html-button-response","64","449920","0.0-3.0-0.27","partial","Male","33","United States of America","","C505658","WA","freqGain","Mozilla/5.0 (Windows NT 6.3; WOW64) AppleWebKit/537.36 (KHTML, like Gecko) Chrome/78.0.3904.99 Safari/537.36 Vivaldi/2.9.1705.41","0.98","","1166","","<img src = 'img/A1-B1-L0-W1.jpg' width = '600'>","0","28","","","","",""
"","html-keyboard-response","65","451922","0.0-3.0-1.27","partial","Male","33","United States of America","","C505658","WA","freqGain","Mozilla/5.0 (Windows NT 6.3; WOW64) AppleWebKit/537.36 (KHTML, like Gecko) Chrome/78.0.3904.99 Safari/537.36 Vivaldi/2.9.1705.41","0.98","","null","","You successfully harvested honey! You earned <b>3 </b>points.","","28","null","3","55","",""
"","html-button-response","66","453281","0.0-3.0-0.28","partial","Male","33","United States of America","","C505658","WA","freqGain","Mozilla/5.0 (Windows NT 6.3; WOW64) AppleWebKit/537.36 (KHTML, like Gecko) Chrome/78.0.3904.99 Safari/537.36 Vivaldi/2.9.1705.41","0.98","","1359","","<img src = 'img/A1-B0-L1-W0.jpg' width = '600'>","0","29","","","","",""
"","html-keyboard-response","67","455282","0.0-3.0-1.28","partial","Male","33","United States of America","","C505658","WA","freqGain","Mozilla/5.0 (Windows NT 6.3; WOW64) AppleWebKit/537.36 (KHTML, like Gecko) Chrome/78.0.3904.99 Safari/537.36 Vivaldi/2.9.1705.41","0.98","","null","","Ouch, you were stung! You lost <b>-1 </b>point.","","29","null","-1","54","",""
"","html-button-response","68","460056","0.0-3.0-0.29","partial","Male","33","United States of America","","C505658","WA","freqGain","Mozilla/5.0 (Windows NT 6.3; WOW64) AppleWebKit/537.36 (KHTML, like Gecko) Chrome/78.0.3904.99 Safari/537.36 Vivaldi/2.9.1705.41","0.98","","4773","","<img src = 'img/A0-B0-L0-W0.jpg' width = '600'>","1","30","","","","",""
"","html-keyboard-response","69","462062","0.0-3.0-1.29","partial","Male","33","United States of America","","C505658","WA","freqGain","Mozilla/5.0 (Windows NT 6.3; WOW64) AppleWebKit/537.36 (KHTML, like Gecko) Chrome/78.0.3904.99 Safari/537.36 Vivaldi/2.9.1705.41","0.98","","null","","You avoided this hive. You earned <b>0 </b>points.","","30","null","0","54","",""
"","html-button-response","70","463242","0.0-3.0-0.30","partial","Male","33","United States of America","","C505658","WA","freqGain","Mozilla/5.0 (Windows NT 6.3; WOW64) AppleWebKit/537.36 (KHTML, like Gecko) Chrome/78.0.3904.99 Safari/537.36 Vivaldi/2.9.1705.41","0.98","","1179","","<img src = 'img/A0-B1-L1-W0.jpg' width = '600'>","1","31","","","","",""
"","html-keyboard-response","71","465243","0.0-3.0-1.30","partial","Male","33","United States of America","","C505658","WA","freqGain","Mozilla/5.0 (Windows NT 6.3; WOW64) AppleWebKit/537.36 (KHTML, like Gecko) Chrome/78.0.3904.99 Safari/537.36 Vivaldi/2.9.1705.41","0.98","","null","","You avoided this hive. You earned <b>0 </b>points.","","31","null","0","54","",""
"","html-button-response","72","466370","0.0-3.0-0.31","partial","Male","33","United States of America","","C505658","WA","freqGain","Mozilla/5.0 (Windows NT 6.3; WOW64) AppleWebKit/537.36 (KHTML, like Gecko) Chrome/78.0.3904.99 Safari/537.36 Vivaldi/2.9.1705.41","0.98","","1126","","<img src = 'img/A1-B0-L0-W1.jpg' width = '600'>","0","32","","","","",""
"","html-keyboard-response","73","468372","0.0-3.0-1.31","partial","Male","33","United States of America","","C505658","WA","freqGain","Mozilla/5.0 (Windows NT 6.3; WOW64) AppleWebKit/537.36 (KHTML, like Gecko) Chrome/78.0.3904.99 Safari/537.36 Vivaldi/2.9.1705.41","0.98","","null","","You successfully harvested honey! You earned <b>3 </b>points.","","32","null","3","57","",""
"","html-button-response","74","471931","0.0-3.0-0.32","partial","Male","33","United States of America","","C505658","WA","freqGain","Mozilla/5.0 (Windows NT 6.3; WOW64) AppleWebKit/537.36 (KHTML, like Gecko) Chrome/78.0.3904.99 Safari/537.36 Vivaldi/2.9.1705.41","0.98","","3558","","<img src = 'img/A0-B1-L0-W1.jpg' width = '600'>","0","33","","","","",""
"","html-keyboard-response","75","473933","0.0-3.0-1.32","partial","Male","33","United States of America","","C505658","WA","freqGain","Mozilla/5.0 (Windows NT 6.3; WOW64) AppleWebKit/537.36 (KHTML, like Gecko) Chrome/78.0.3904.99 Safari/537.36 Vivaldi/2.9.1705.41","0.98","","null","","Ouch, you were stung! You lost <b>-1 </b>point.","","33","null","-1","56","",""
"","html-button-response","76","474795","0.0-3.0-0.33","partial","Male","33","United States of America","","C505658","WA","freqGain","Mozilla/5.0 (Windows NT 6.3; WOW64) AppleWebKit/537.36 (KHTML, like Gecko) Chrome/78.0.3904.99 Safari/537.36 Vivaldi/2.9.1705.41","0.98","","861","","<img src = 'img/A1-B1-L0-W0.jpg' width = '600'>","1","34","","","","",""
"","html-keyboard-response","77","476796","0.0-3.0-1.33","partial","Male","33","United States of America","","C505658","WA","freqGain","Mozilla/5.0 (Windows NT 6.3; WOW64) AppleWebKit/537.36 (KHTML, like Gecko) Chrome/78.0.3904.99 Safari/537.36 Vivaldi/2.9.1705.41","0.98","","null","","You avoided this hive. You earned <b>0 </b>points.","","34","null","0","56","",""
"","html-button-response","78","477796","0.0-3.0-0.34","partial","Male","33","United States of America","","C505658","WA","freqGain","Mozilla/5.0 (Windows NT 6.3; WOW64) AppleWebKit/537.36 (KHTML, like Gecko) Chrome/78.0.3904.99 Safari/537.36 Vivaldi/2.9.1705.41","0.98","","998","","<img src = 'img/A1-B0-L0-W0.jpg' width = '600'>","0","35","","","","",""
"","html-keyboard-response","79","479797","0.0-3.0-1.34","partial","Male","33","United States of America","","C505658","WA","freqGain","Mozilla/5.0 (Windows NT 6.3; WOW64) AppleWebKit/537.36 (KHTML, like Gecko) Chrome/78.0.3904.99 Safari/537.36 Vivaldi/2.9.1705.41","0.98","","null","","Ouch, you were stung! You lost <b>-1 </b>point.","","35","null","-1","55","",""
"","html-button-response","80","480955","0.0-3.0-0.35","partial","Male","33","United States of America","","C505658","WA","freqGain","Mozilla/5.0 (Windows NT 6.3; WOW64) AppleWebKit/537.36 (KHTML, like Gecko) Chrome/78.0.3904.99 Safari/537.36 Vivaldi/2.9.1705.41","0.98","","1157","","<img src = 'img/A0-B0-L1-W1.jpg' width = '600'>","0","36","","","","",""
"","html-keyboard-response","81","482956","0.0-3.0-1.35","partial","Male","33","United States of America","","C505658","WA","freqGain","Mozilla/5.0 (Windows NT 6.3; WOW64) AppleWebKit/537.36 (KHTML, like Gecko) Chrome/78.0.3904.99 Safari/537.36 Vivaldi/2.9.1705.41","0.98","","null","","Ouch, you were stung! You lost <b>-1 </b>point.","","36","null","-1","54","",""
"","html-button-response","82","484037","0.0-3.0-0.36","partial","Male","33","United States of America","","C505658","WA","freqGain","Mozilla/5.0 (Windows NT 6.3; WOW64) AppleWebKit/537.36 (KHTML, like Gecko) Chrome/78.0.3904.99 Safari/537.36 Vivaldi/2.9.1705.41","0.98","","1079","","<img src = 'img/A1-B1-L1-W1.jpg' width = '600'>","0","37","","","","",""
"","html-keyboard-response","83","486038","0.0-3.0-1.36","partial","Male","33","United States of America","","C505658","WA","freqGain","Mozilla/5.0 (Windows NT 6.3; WOW64) AppleWebKit/537.36 (KHTML, like Gecko) Chrome/78.0.3904.99 Safari/537.36 Vivaldi/2.9.1705.41","0.98","","null","","You successfully harvested honey! You earned <b>3 </b>points.","","37","null","3","57","",""
"","html-button-response","84","487165","0.0-3.0-0.37","partial","Male","33","United States of America","","C505658","WA","freqGain","Mozilla/5.0 (Windows NT 6.3; WOW64) AppleWebKit/537.36 (KHTML, like Gecko) Chrome/78.0.3904.99 Safari/537.36 Vivaldi/2.9.1705.41","0.98","","1126","","<img src = 'img/A1-B0-L0-W1.jpg' width = '600'>","0","38","","","","",""
"","html-keyboard-response","85","489167","0.0-3.0-1.37","partial","Male","33","United States of America","","C505658","WA","freqGain","Mozilla/5.0 (Windows NT 6.3; WOW64) AppleWebKit/537.36 (KHTML, like Gecko) Chrome/78.0.3904.99 Safari/537.36 Vivaldi/2.9.1705.41","0.98","","null","","You successfully harvested honey! You earned <b>3 </b>points.","","38","null","3","60","",""
"","html-button-response","86","490413","0.0-3.0-0.38","partial","Male","33","United States of America","","C505658","WA","freqGain","Mozilla/5.0 (Windows NT 6.3; WOW64) AppleWebKit/537.36 (KHTML, like Gecko) Chrome/78.0.3904.99 Safari/537.36 Vivaldi/2.9.1705.41","0.98","","1246","","<img src = 'img/A0-B1-L1-W0.jpg' width = '600'>","1","39","","","","",""
"","html-keyboard-response","87","492414","0.0-3.0-1.38","partial","Male","33","United States of America","","C505658","WA","freqGain","Mozilla/5.0 (Windows NT 6.3; WOW64) AppleWebKit/537.36 (KHTML, like Gecko) Chrome/78.0.3904.99 Safari/537.36 Vivaldi/2.9.1705.41","0.98","","null","","You avoided this hive. You earned <b>0 </b>points.","","39","null","0","60","",""
"","html-button-response","88","493117","0.0-3.0-0.39","partial","Male","33","United States of America","","C505658","WA","freqGain","Mozilla/5.0 (Windows NT 6.3; WOW64) AppleWebKit/537.36 (KHTML, like Gecko) Chrome/78.0.3904.99 Safari/537.36 Vivaldi/2.9.1705.41","0.98","","703","","<img src = 'img/A1-B1-L1-W0.jpg' width = '600'>","1","40","","","","",""
"","html-keyboard-response","89","495118","0.0-3.0-1.39","partial","Male","33","United States of America","","C505658","WA","freqGain","Mozilla/5.0 (Windows NT 6.3; WOW64) AppleWebKit/537.36 (KHTML, like Gecko) Chrome/78.0.3904.99 Safari/537.36 Vivaldi/2.9.1705.41","0.98","","null","","You avoided this hive. You earned <b>0 </b>points.","","40","null","0","60","",""
"","html-button-response","90","496558","0.0-3.0-0.40","partial","Male","33","United States of America","","C505658","WA","freqGain","Mozilla/5.0 (Windows NT 6.3; WOW64) AppleWebKit/537.36 (KHTML, like Gecko) Chrome/78.0.3904.99 Safari/537.36 Vivaldi/2.9.1705.41","0.98","","1439","","<img src = 'img/A0-B1-L1-W1.jpg' width = '600'>","0","41","","","","",""
"","html-keyboard-response","91","498560","0.0-3.0-1.40","partial","Male","33","United States of America","","C505658","WA","freqGain","Mozilla/5.0 (Windows NT 6.3; WOW64) AppleWebKit/537.36 (KHTML, like Gecko) Chrome/78.0.3904.99 Safari/537.36 Vivaldi/2.9.1705.41","0.98","","null","","Ouch, you were stung! You lost <b>-1 </b>point.","","41","null","-1","59","",""
"","html-button-response","92","501118","0.0-3.0-0.41","partial","Male","33","United States of America","","C505658","WA","freqGain","Mozilla/5.0 (Windows NT 6.3; WOW64) AppleWebKit/537.36 (KHTML, like Gecko) Chrome/78.0.3904.99 Safari/537.36 Vivaldi/2.9.1705.41","0.98","","2558","","<img src = 'img/A0-B0-L0-W0.jpg' width = '600'>","1","42","","","","",""
"","html-keyboard-response","93","503120","0.0-3.0-1.41","partial","Male","33","United States of America","","C505658","WA","freqGain","Mozilla/5.0 (Windows NT 6.3; WOW64) AppleWebKit/537.36 (KHTML, like Gecko) Chrome/78.0.3904.99 Safari/537.36 Vivaldi/2.9.1705.41","0.98","","null","","You avoided this hive. You earned <b>0 </b>points.","","42","null","0","59","",""
"","html-button-response","94","504974","0.0-3.0-0.42","partial","Male","33","United States of America","","C505658","WA","freqGain","Mozilla/5.0 (Windows NT 6.3; WOW64) AppleWebKit/537.36 (KHTML, like Gecko) Chrome/78.0.3904.99 Safari/537.36 Vivaldi/2.9.1705.41","0.98","","1853","","<img src = 'img/A0-B0-L1-W0.jpg' width = '600'>","1","43","","","","",""
"","html-keyboard-response","95","506977","0.0-3.0-1.42","partial","Male","33","United States of America","","C505658","WA","freqGain","Mozilla/5.0 (Windows NT 6.3; WOW64) AppleWebKit/537.36 (KHTML, like Gecko) Chrome/78.0.3904.99 Safari/537.36 Vivaldi/2.9.1705.41","0.98","","null","","You avoided this hive. You earned <b>0 </b>points.","","43","null","0","59","",""
"","html-button-response","96","508294","0.0-3.0-0.43","partial","Male","33","United States of America","","C505658","WA","freqGain","Mozilla/5.0 (Windows NT 6.3; WOW64) AppleWebKit/537.36 (KHTML, like Gecko) Chrome/78.0.3904.99 Safari/537.36 Vivaldi/2.9.1705.41","0.98","","1317","","<img src = 'img/A0-B0-L0-W1.jpg' width = '600'>","0","44","","","","",""
"","html-keyboard-response","97","510297","0.0-3.0-1.43","partial","Male","33","United States of America","","C505658","WA","freqGain","Mozilla/5.0 (Windows NT 6.3; WOW64) AppleWebKit/537.36 (KHTML, like Gecko) Chrome/78.0.3904.99 Safari/537.36 Vivaldi/2.9.1705.41","0.98","","null","","Ouch, you were stung! You lost <b>-1 </b>point.","","44","null","-1","58","",""
"","html-button-response","98","515792","0.0-3.0-0.44","partial","Male","33","United States of America","","C505658","WA","freqGain","Mozilla/5.0 (Windows NT 6.3; WOW64) AppleWebKit/537.36 (KHTML, like Gecko) Chrome/78.0.3904.99 Safari/537.36 Vivaldi/2.9.1705.41","0.98","","5495","","<img src = 'img/A1-B1-L0-W1.jpg' width = '600'>","0","45","","","","",""
"","html-keyboard-response","99","517794","0.0-3.0-1.44","partial","Male","33","United States of America","","C505658","WA","freqGain","Mozilla/5.0 (Windows NT 6.3; WOW64) AppleWebKit/537.36 (KHTML, like Gecko) Chrome/78.0.3904.99 Safari/537.36 Vivaldi/2.9.1705.41","0.98","","null","","You successfully harvested honey! You earned <b>3 </b>points.","","45","null","3","61","",""
"","html-button-response","100","519216","0.0-3.0-0.45","partial","Male","33","United States of America","","C505658","WA","freqGain","Mozilla/5.0 (Windows NT 6.3; WOW64) AppleWebKit/537.36 (KHTML, like Gecko) Chrome/78.0.3904.99 Safari/537.36 Vivaldi/2.9.1705.41","0.98","","1422","","<img src = 'img/A0-B1-L0-W0.jpg' width = '600'>","1","46","","","","",""
"","html-keyboard-response","101","521219","0.0-3.0-1.45","partial","Male","33","United States of America","","C505658","WA","freqGain","Mozilla/5.0 (Windows NT 6.3; WOW64) AppleWebKit/537.36 (KHTML, like Gecko) Chrome/78.0.3904.99 Safari/537.36 Vivaldi/2.9.1705.41","0.98","","null","","You avoided this hive. You earned <b>0 </b>points.","","46","null","0","61","",""
"","html-button-response","102","522208","0.0-3.0-0.46","partial","Male","33","United States of America","","C505658","WA","freqGain","Mozilla/5.0 (Windows NT 6.3; WOW64) AppleWebKit/537.36 (KHTML, like Gecko) Chrome/78.0.3904.99 Safari/537.36 Vivaldi/2.9.1705.41","0.98","","989","","<img src = 'img/A1-B0-L1-W0.jpg' width = '600'>","1","47","","","","",""
"","html-keyboard-response","103","524211","0.0-3.0-1.46","partial","Male","33","United States of America","","C505658","WA","freqGain","Mozilla/5.0 (Windows NT 6.3; WOW64) AppleWebKit/537.36 (KHTML, like Gecko) Chrome/78.0.3904.99 Safari/537.36 Vivaldi/2.9.1705.41","0.98","","null","","You avoided this hive. You earned <b>0 </b>points.","","47","null","0","61","",""
"","html-button-response","104","526176","0.0-3.0-0.47","partial","Male","33","United States of America","","C505658","WA","freqGain","Mozilla/5.0 (Windows NT 6.3; WOW64) AppleWebKit/537.36 (KHTML, like Gecko) Chrome/78.0.3904.99 Safari/537.36 Vivaldi/2.9.1705.41","0.98","","1965","","<img src = 'img/A1-B0-L1-W1.jpg' width = '600'>","0","48","","","","",""
"","html-keyboard-response","105","528177","0.0-3.0-1.47","partial","Male","33","United States of America","","C505658","WA","freqGain","Mozilla/5.0 (Windows NT 6.3; WOW64) AppleWebKit/537.36 (KHTML, like Gecko) Chrome/78.0.3904.99 Safari/537.36 Vivaldi/2.9.1705.41","0.98","","null","","You successfully harvested honey! You earned <b>3 </b>points.","","48","null","3","64","",""
"","html-button-response","106","532673","0.0-3.0-0.48","partial","Male","33","United States of America","","C505658","WA","freqGain","Mozilla/5.0 (Windows NT 6.3; WOW64) AppleWebKit/537.36 (KHTML, like Gecko) Chrome/78.0.3904.99 Safari/537.36 Vivaldi/2.9.1705.41","0.98","","4495","","<img src = 'img/A0-B1-L1-W1.jpg' width = '600'>","0","49","","","","",""
"","html-keyboard-response","107","534675","0.0-3.0-1.48","partial","Male","33","United States of America","","C505658","WA","freqGain","Mozilla/5.0 (Windows NT 6.3; WOW64) AppleWebKit/537.36 (KHTML, like Gecko) Chrome/78.0.3904.99 Safari/537.36 Vivaldi/2.9.1705.41","0.98","","null","","Ouch, you were stung! You lost <b>-1 </b>point.","","49","null","-1","63","",""
"","html-button-response","108","535506","0.0-3.0-0.49","partial","Male","33","United States of America","","C505658","WA","freqGain","Mozilla/5.0 (Windows NT 6.3; WOW64) AppleWebKit/537.36 (KHTML, like Gecko) Chrome/78.0.3904.99 Safari/537.36 Vivaldi/2.9.1705.41","0.98","","830","","<img src = 'img/A1-B0-L1-W1.jpg' width = '600'>","1","50","","","","",""
"","html-keyboard-response","109","537508","0.0-3.0-1.49","partial","Male","33","United States of America","","C505658","WA","freqGain","Mozilla/5.0 (Windows NT 6.3; WOW64) AppleWebKit/537.36 (KHTML, like Gecko) Chrome/78.0.3904.99 Safari/537.36 Vivaldi/2.9.1705.41","0.98","","null","","You avoided this hive. You earned <b>0 </b>points.","","50","null","0","63","",""
"","html-button-response","110","538234","0.0-3.0-0.50","partial","Male","33","United States of America","","C505658","WA","freqGain","Mozilla/5.0 (Windows NT 6.3; WOW64) AppleWebKit/537.36 (KHTML, like Gecko) Chrome/78.0.3904.99 Safari/537.36 Vivaldi/2.9.1705.41","0.98","","725","","<img src = 'img/A0-B1-L0-W0.jpg' width = '600'>","1","51","","","","",""
"","html-keyboard-response","111","540236","0.0-3.0-1.50","partial","Male","33","United States of America","","C505658","WA","freqGain","Mozilla/5.0 (Windows NT 6.3; WOW64) AppleWebKit/537.36 (KHTML, like Gecko) Chrome/78.0.3904.99 Safari/537.36 Vivaldi/2.9.1705.41","0.98","","null","","You avoided this hive. You earned <b>0 </b>points.","","51","null","0","63","",""
"","html-button-response","112","544730","0.0-3.0-0.51","partial","Male","33","United States of America","","C505658","WA","freqGain","Mozilla/5.0 (Windows NT 6.3; WOW64) AppleWebKit/537.36 (KHTML, like Gecko) Chrome/78.0.3904.99 Safari/537.36 Vivaldi/2.9.1705.41","0.98","","4494","","<img src = 'img/A1-B1-L1-W0.jpg' width = '600'>","1","52","","","","",""
"","html-keyboard-response","113","546733","0.0-3.0-1.51","partial","Male","33","United States of America","","C505658","WA","freqGain","Mozilla/5.0 (Windows NT 6.3; WOW64) AppleWebKit/537.36 (KHTML, like Gecko) Chrome/78.0.3904.99 Safari/537.36 Vivaldi/2.9.1705.41","0.98","","null","","You avoided this hive. You earned <b>0 </b>points.","","52","null","0","63","",""
"","html-button-response","114","547788","0.0-3.0-0.52","partial","Male","33","United States of America","","C505658","WA","freqGain","Mozilla/5.0 (Windows NT 6.3; WOW64) AppleWebKit/537.36 (KHTML, like Gecko) Chrome/78.0.3904.99 Safari/537.36 Vivaldi/2.9.1705.41","0.98","","1055","","<img src = 'img/A0-B0-L1-W1.jpg' width = '600'>","0","53","","","","",""
"","html-keyboard-response","115","549790","0.0-3.0-1.52","partial","Male","33","United States of America","","C505658","WA","freqGain","Mozilla/5.0 (Windows NT 6.3; WOW64) AppleWebKit/537.36 (KHTML, like Gecko) Chrome/78.0.3904.99 Safari/537.36 Vivaldi/2.9.1705.41","0.98","","null","","Ouch, you were stung! You lost <b>-1 </b>point.","","53","null","-1","62","",""
"","html-button-response","116","550868","0.0-3.0-0.53","partial","Male","33","United States of America","","C505658","WA","freqGain","Mozilla/5.0 (Windows NT 6.3; WOW64) AppleWebKit/537.36 (KHTML, like Gecko) Chrome/78.0.3904.99 Safari/537.36 Vivaldi/2.9.1705.41","0.98","","1076","","<img src = 'img/A1-B1-L0-W0.jpg' width = '600'>","1","54","","","","",""
"","html-keyboard-response","117","552868","0.0-3.0-1.53","partial","Male","33","United States of America","","C505658","WA","freqGain","Mozilla/5.0 (Windows NT 6.3; WOW64) AppleWebKit/537.36 (KHTML, like Gecko) Chrome/78.0.3904.99 Safari/537.36 Vivaldi/2.9.1705.41","0.98","","null","","You avoided this hive. You earned <b>0 </b>points.","","54","null","0","62","",""
"","html-button-response","118","553868","0.0-3.0-0.54","partial","Male","33","United States of America","","C505658","WA","freqGain","Mozilla/5.0 (Windows NT 6.3; WOW64) AppleWebKit/537.36 (KHTML, like Gecko) Chrome/78.0.3904.99 Safari/537.36 Vivaldi/2.9.1705.41","0.98","","999","","<img src = 'img/A1-B1-L1-W1.jpg' width = '600'>","0","55","","","","",""
"","html-keyboard-response","119","555870","0.0-3.0-1.54","partial","Male","33","United States of America","","C505658","WA","freqGain","Mozilla/5.0 (Windows NT 6.3; WOW64) AppleWebKit/537.36 (KHTML, like Gecko) Chrome/78.0.3904.99 Safari/537.36 Vivaldi/2.9.1705.41","0.98","","null","","You successfully harvested honey! You earned <b>3 </b>points.","","55","null","3","65","",""
"","html-button-response","120","556859","0.0-3.0-0.55","partial","Male","33","United States of America","","C505658","WA","freqGain","Mozilla/5.0 (Windows NT 6.3; WOW64) AppleWebKit/537.36 (KHTML, like Gecko) Chrome/78.0.3904.99 Safari/537.36 Vivaldi/2.9.1705.41","0.98","","989","","<img src = 'img/A0-B0-L1-W0.jpg' width = '600'>","1","56","","","","",""
"","html-keyboard-response","121","558861","0.0-3.0-1.55","partial","Male","33","United States of America","","C505658","WA","freqGain","Mozilla/5.0 (Windows NT 6.3; WOW64) AppleWebKit/537.36 (KHTML, like Gecko) Chrome/78.0.3904.99 Safari/537.36 Vivaldi/2.9.1705.41","0.98","","null","","You avoided this hive. You earned <b>0 </b>points.","","56","null","0","65","",""
"","html-button-response","122","559540","0.0-3.0-0.56","partial","Male","33","United States of America","","C505658","WA","freqGain","Mozilla/5.0 (Windows NT 6.3; WOW64) AppleWebKit/537.36 (KHTML, like Gecko) Chrome/78.0.3904.99 Safari/537.36 Vivaldi/2.9.1705.41","0.98","","678","","<img src = 'img/A1-B0-L0-W0.jpg' width = '600'>","1","57","","","","",""
"","html-keyboard-response","123","561542","0.0-3.0-1.56","partial","Male","33","United States of America","","C505658","WA","freqGain","Mozilla/5.0 (Windows NT 6.3; WOW64) AppleWebKit/537.36 (KHTML, like Gecko) Chrome/78.0.3904.99 Safari/537.36 Vivaldi/2.9.1705.41","0.98","","null","","You avoided this hive. You earned <b>0 </b>points.","","57","null","0","65","",""
"","html-button-response","124","562548","0.0-3.0-0.57","partial","Male","33","United States of America","","C505658","WA","freqGain","Mozilla/5.0 (Windows NT 6.3; WOW64) AppleWebKit/537.36 (KHTML, like Gecko) Chrome/78.0.3904.99 Safari/537.36 Vivaldi/2.9.1705.41","0.98","","1006","","<img src = 'img/A0-B0-L0-W1.jpg' width = '600'>","0","58","","","","",""
"","html-keyboard-response","125","564550","0.0-3.0-1.57","partial","Male","33","United States of America","","C505658","WA","freqGain","Mozilla/5.0 (Windows NT 6.3; WOW64) AppleWebKit/537.36 (KHTML, like Gecko) Chrome/78.0.3904.99 Safari/537.36 Vivaldi/2.9.1705.41","0.98","","null","","Ouch, you were stung! You lost <b>-1 </b>point.","","58","null","-1","64","",""
"","html-button-response","126","565046","0.0-3.0-0.58","partial","Male","33","United States of America","","C505658","WA","freqGain","Mozilla/5.0 (Windows NT 6.3; WOW64) AppleWebKit/537.36 (KHTML, like Gecko) Chrome/78.0.3904.99 Safari/537.36 Vivaldi/2.9.1705.41","0.98","","496","","<img src = 'img/A0-B0-L0-W0.jpg' width = '600'>","1","59","","","","",""
"","html-keyboard-response","127","567048","0.0-3.0-1.58","partial","Male","33","United States of America","","C505658","WA","freqGain","Mozilla/5.0 (Windows NT 6.3; WOW64) AppleWebKit/537.36 (KHTML, like Gecko) Chrome/78.0.3904.99 Safari/537.36 Vivaldi/2.9.1705.41","0.98","","null","","You avoided this hive. You earned <b>0 </b>points.","","59","null","0","64","",""
"","html-button-response","128","569710","0.0-3.0-0.59","partial","Male","33","United States of America","","C505658","WA","freqGain","Mozilla/5.0 (Windows NT 6.3; WOW64) AppleWebKit/537.36 (KHTML, like Gecko) Chrome/78.0.3904.99 Safari/537.36 Vivaldi/2.9.1705.41","0.98","","2660","","<img src = 'img/A0-B1-L0-W1.jpg' width = '600'>","0","60","","","","",""
"","html-keyboard-response","129","571711","0.0-3.0-1.59","partial","Male","33","United States of America","","C505658","WA","freqGain","Mozilla/5.0 (Windows NT 6.3; WOW64) AppleWebKit/537.36 (KHTML, like Gecko) Chrome/78.0.3904.99 Safari/537.36 Vivaldi/2.9.1705.41","0.98","","null","","Ouch, you were stung! You lost <b>-1 </b>point.","","60","null","-1","63","",""
"","html-button-response","130","572246","0.0-3.0-0.60","partial","Male","33","United States of America","","C505658","WA","freqGain","Mozilla/5.0 (Windows NT 6.3; WOW64) AppleWebKit/537.36 (KHTML, like Gecko) Chrome/78.0.3904.99 Safari/537.36 Vivaldi/2.9.1705.41","0.98","","534","","<img src = 'img/A0-B1-L1-W0.jpg' width = '600'>","1","61","","","","",""
"","html-keyboard-response","131","574247","0.0-3.0-1.60","partial","Male","33","United States of America","","C505658","WA","freqGain","Mozilla/5.0 (Windows NT 6.3; WOW64) AppleWebKit/537.36 (KHTML, like Gecko) Chrome/78.0.3904.99 Safari/537.36 Vivaldi/2.9.1705.41","0.98","","null","","You avoided this hive. You earned <b>0 </b>points.","","61","null","0","63","",""
"","html-button-response","132","574925","0.0-3.0-0.61","partial","Male","33","United States of America","","C505658","WA","freqGain","Mozilla/5.0 (Windows NT 6.3; WOW64) AppleWebKit/537.36 (KHTML, like Gecko) Chrome/78.0.3904.99 Safari/537.36 Vivaldi/2.9.1705.41","0.98","","677","","<img src = 'img/A1-B1-L0-W1.jpg' width = '600'>","1","62","","","","",""
"","html-keyboard-response","133","576926","0.0-3.0-1.61","partial","Male","33","United States of America","","C505658","WA","freqGain","Mozilla/5.0 (Windows NT 6.3; WOW64) AppleWebKit/537.36 (KHTML, like Gecko) Chrome/78.0.3904.99 Safari/537.36 Vivaldi/2.9.1705.41","0.98","","null","","You avoided this hive. You earned <b>0 </b>points.","","62","null","0","63","",""
"","html-button-response","134","578687","0.0-3.0-0.62","partial","Male","33","United States of America","","C505658","WA","freqGain","Mozilla/5.0 (Windows NT 6.3; WOW64) AppleWebKit/537.36 (KHTML, like Gecko) Chrome/78.0.3904.99 Safari/537.36 Vivaldi/2.9.1705.41","0.98","","1760","","<img src = 'img/A1-B0-L1-W0.jpg' width = '600'>","1","63","","","","",""
"","html-keyboard-response","135","580689","0.0-3.0-1.62","partial","Male","33","United States of America","","C505658","WA","freqGain","Mozilla/5.0 (Windows NT 6.3; WOW64) AppleWebKit/537.36 (KHTML, like Gecko) Chrome/78.0.3904.99 Safari/537.36 Vivaldi/2.9.1705.41","0.98","","null","","You avoided this hive. You earned <b>0 </b>points.","","63","null","0","63","",""
"","html-button-response","136","581951","0.0-3.0-0.63","partial","Male","33","United States of America","","C505658","WA","freqGain","Mozilla/5.0 (Windows NT 6.3; WOW64) AppleWebKit/537.36 (KHTML, like Gecko) Chrome/78.0.3904.99 Safari/537.36 Vivaldi/2.9.1705.41","0.98","","1262","","<img src = 'img/A1-B0-L0-W1.jpg' width = '600'>","0","64","","","","",""
"","html-keyboard-response","137","583957","0.0-3.0-1.63","partial","Male","33","United States of America","","C505658","WA","freqGain","Mozilla/5.0 (Windows NT 6.3; WOW64) AppleWebKit/537.36 (KHTML, like Gecko) Chrome/78.0.3904.99 Safari/537.36 Vivaldi/2.9.1705.41","0.98","","null","","You successfully harvested honey! You earned <b>3 </b>points.","","64","null","3","66","",""
"","html-button-response","138","585158","0.0-3.0-0.64","partial","Male","33","United States of America","","C505658","WA","freqGain","Mozilla/5.0 (Windows NT 6.3; WOW64) AppleWebKit/537.36 (KHTML, like Gecko) Chrome/78.0.3904.99 Safari/537.36 Vivaldi/2.9.1705.41","0.98","","1200","","<img src = 'img/A0-B1-L1-W0.jpg' width = '600'>","1","65","","","","",""
"","html-keyboard-response","139","587159","0.0-3.0-1.64","partial","Male","33","United States of America","","C505658","WA","freqGain","Mozilla/5.0 (Windows NT 6.3; WOW64) AppleWebKit/537.36 (KHTML, like Gecko) Chrome/78.0.3904.99 Safari/537.36 Vivaldi/2.9.1705.41","0.98","","null","","You avoided this hive. You earned <b>0 </b>points.","","65","null","0","66","",""
"","html-button-response","140","588088","0.0-3.0-0.65","partial","Male","33","United States of America","","C505658","WA","freqGain","Mozilla/5.0 (Windows NT 6.3; WOW64) AppleWebKit/537.36 (KHTML, like Gecko) Chrome/78.0.3904.99 Safari/537.36 Vivaldi/2.9.1705.41","0.98","","928","","<img src = 'img/A1-B1-L0-W0.jpg' width = '600'>","1","66","","","","",""
"","html-keyboard-response","141","590090","0.0-3.0-1.65","partial","Male","33","United States of America","","C505658","WA","freqGain","Mozilla/5.0 (Windows NT 6.3; WOW64) AppleWebKit/537.36 (KHTML, like Gecko) Chrome/78.0.3904.99 Safari/537.36 Vivaldi/2.9.1705.41","0.98","","null","","You avoided this hive. You earned <b>0 </b>points.","","66","null","0","66","",""
"","html-button-response","142","591432","0.0-3.0-0.66","partial","Male","33","United States of America","","C505658","WA","freqGain","Mozilla/5.0 (Windows NT 6.3; WOW64) AppleWebKit/537.36 (KHTML, like Gecko) Chrome/78.0.3904.99 Safari/537.36 Vivaldi/2.9.1705.41","0.98","","1341","","<img src = 'img/A0-B0-L0-W1.jpg' width = '600'>","0","67","","","","",""
"","html-keyboard-response","143","593433","0.0-3.0-1.66","partial","Male","33","United States of America","","C505658","WA","freqGain","Mozilla/5.0 (Windows NT 6.3; WOW64) AppleWebKit/537.36 (KHTML, like Gecko) Chrome/78.0.3904.99 Safari/537.36 Vivaldi/2.9.1705.41","0.98","","null","","Ouch, you were stung! You lost <b>-1 </b>point.","","67","null","-1","65","",""
"","html-button-response","144","602137","0.0-3.0-0.67","partial","Male","33","United States of America","","C505658","WA","freqGain","Mozilla/5.0 (Windows NT 6.3; WOW64) AppleWebKit/537.36 (KHTML, like Gecko) Chrome/78.0.3904.99 Safari/537.36 Vivaldi/2.9.1705.41","0.98","","8704","","<img src = 'img/A0-B0-L0-W0.jpg' width = '600'>","1","68","","","","",""
"","html-keyboard-response","145","604139","0.0-3.0-1.67","partial","Male","33","United States of America","","C505658","WA","freqGain","Mozilla/5.0 (Windows NT 6.3; WOW64) AppleWebKit/537.36 (KHTML, like Gecko) Chrome/78.0.3904.99 Safari/537.36 Vivaldi/2.9.1705.41","0.98","","null","","You avoided this hive. You earned <b>0 </b>points.","","68","null","0","65","",""
"","html-button-response","146","606056","0.0-3.0-0.68","partial","Male","33","United States of America","","C505658","WA","freqGain","Mozilla/5.0 (Windows NT 6.3; WOW64) AppleWebKit/537.36 (KHTML, like Gecko) Chrome/78.0.3904.99 Safari/537.36 Vivaldi/2.9.1705.41","0.98","","1917","","<img src = 'img/A1-B1-L1-W1.jpg' width = '600'>","0","69","","","","",""
"","html-keyboard-response","147","608058","0.0-3.0-1.68","partial","Male","33","United States of America","","C505658","WA","freqGain","Mozilla/5.0 (Windows NT 6.3; WOW64) AppleWebKit/537.36 (KHTML, like Gecko) Chrome/78.0.3904.99 Safari/537.36 Vivaldi/2.9.1705.41","0.98","","null","","You successfully harvested honey! You earned <b>3 </b>points.","","69","null","3","68","",""
"","html-button-response","148","610849","0.0-3.0-0.69","partial","Male","33","United States of America","","C505658","WA","freqGain","Mozilla/5.0 (Windows NT 6.3; WOW64) AppleWebKit/537.36 (KHTML, like Gecko) Chrome/78.0.3904.99 Safari/537.36 Vivaldi/2.9.1705.41","0.98","","2790","","<img src = 'img/A1-B0-L0-W0.jpg' width = '600'>","1","70","","","","",""
"","html-keyboard-response","149","612851","0.0-3.0-1.69","partial","Male","33","United States of America","","C505658","WA","freqGain","Mozilla/5.0 (Windows NT 6.3; WOW64) AppleWebKit/537.36 (KHTML, like Gecko) Chrome/78.0.3904.99 Safari/537.36 Vivaldi/2.9.1705.41","0.98","","null","","You avoided this hive. You earned <b>0 </b>points.","","70","null","0","68","",""
"","html-button-response","150","614226","0.0-3.0-0.70","partial","Male","33","United States of America","","C505658","WA","freqGain","Mozilla/5.0 (Windows NT 6.3; WOW64) AppleWebKit/537.36 (KHTML, like Gecko) Chrome/78.0.3904.99 Safari/537.36 Vivaldi/2.9.1705.41","0.98","","1373","","<img src = 'img/A1-B0-L1-W1.jpg' width = '600'>","0","71","","","","",""
"","html-keyboard-response","151","616227","0.0-3.0-1.70","partial","Male","33","United States of America","","C505658","WA","freqGain","Mozilla/5.0 (Windows NT 6.3; WOW64) AppleWebKit/537.36 (KHTML, like Gecko) Chrome/78.0.3904.99 Safari/537.36 Vivaldi/2.9.1705.41","0.98","","null","","You successfully harvested honey! You earned <b>3 </b>points.","","71","null","3","71","",""
"","html-button-response","152","617666","0.0-3.0-0.71","partial","Male","33","United States of America","","C505658","WA","freqGain","Mozilla/5.0 (Windows NT 6.3; WOW64) AppleWebKit/537.36 (KHTML, like Gecko) Chrome/78.0.3904.99 Safari/537.36 Vivaldi/2.9.1705.41","0.98","","1438","","<img src = 'img/A0-B1-L0-W0.jpg' width = '600'>","1","72","","","","",""
"","html-keyboard-response","153","619667","0.0-3.0-1.71","partial","Male","33","United States of America","","C505658","WA","freqGain","Mozilla/5.0 (Windows NT 6.3; WOW64) AppleWebKit/537.36 (KHTML, like Gecko) Chrome/78.0.3904.99 Safari/537.36 Vivaldi/2.9.1705.41","0.98","","null","","You avoided this hive. You earned <b>0 </b>points.","","72","null","0","71","",""
"","html-button-response","154","620521","0.0-3.0-0.72","partial","Male","33","United States of America","","C505658","WA","freqGain","Mozilla/5.0 (Windows NT 6.3; WOW64) AppleWebKit/537.36 (KHTML, like Gecko) Chrome/78.0.3904.99 Safari/537.36 Vivaldi/2.9.1705.41","0.98","","854","","<img src = 'img/A1-B1-L0-W1.jpg' width = '600'>","1","73","","","","",""
"","html-keyboard-response","155","622523","0.0-3.0-1.72","partial","Male","33","United States of America","","C505658","WA","freqGain","Mozilla/5.0 (Windows NT 6.3; WOW64) AppleWebKit/537.36 (KHTML, like Gecko) Chrome/78.0.3904.99 Safari/537.36 Vivaldi/2.9.1705.41","0.98","","null","","You avoided this hive. You earned <b>0 </b>points.","","73","null","0","71","",""
"","html-button-response","156","623402","0.0-3.0-0.73","partial","Male","33","United States of America","","C505658","WA","freqGain","Mozilla/5.0 (Windows NT 6.3; WOW64) AppleWebKit/537.36 (KHTML, like Gecko) Chrome/78.0.3904.99 Safari/537.36 Vivaldi/2.9.1705.41","0.98","","879","","<img src = 'img/A1-B0-L0-W1.jpg' width = '600'>","0","74","","","","",""
"","html-keyboard-response","157","625403","0.0-3.0-1.73","partial","Male","33","United States of America","","C505658","WA","freqGain","Mozilla/5.0 (Windows NT 6.3; WOW64) AppleWebKit/537.36 (KHTML, like Gecko) Chrome/78.0.3904.99 Safari/537.36 Vivaldi/2.9.1705.41","0.98","","null","","You successfully harvested honey! You earned <b>3 </b>points.","","74","null","3","74","",""
"","html-button-response","158","626707","0.0-3.0-0.74","partial","Male","33","United States of America","","C505658","WA","freqGain","Mozilla/5.0 (Windows NT 6.3; WOW64) AppleWebKit/537.36 (KHTML, like Gecko) Chrome/78.0.3904.99 Safari/537.36 Vivaldi/2.9.1705.41","0.98","","1303","","<img src = 'img/A0-B1-L0-W1.jpg' width = '600'>","0","75","","","","",""
"","html-keyboard-response","159","628709","0.0-3.0-1.74","partial","Male","33","United States of America","","C505658","WA","freqGain","Mozilla/5.0 (Windows NT 6.3; WOW64) AppleWebKit/537.36 (KHTML, like Gecko) Chrome/78.0.3904.99 Safari/537.36 Vivaldi/2.9.1705.41","0.98","","null","","Ouch, you were stung! You lost <b>-1 </b>point.","","75","null","-1","73","",""
"","html-button-response","160","629587","0.0-3.0-0.75","partial","Male","33","United States of America","","C505658","WA","freqGain","Mozilla/5.0 (Windows NT 6.3; WOW64) AppleWebKit/537.36 (KHTML, like Gecko) Chrome/78.0.3904.99 Safari/537.36 Vivaldi/2.9.1705.41","0.98","","878","","<img src = 'img/A0-B0-L1-W0.jpg' width = '600'>","1","76","","","","",""
"","html-keyboard-response","161","631588","0.0-3.0-1.75","partial","Male","33","United States of America","","C505658","WA","freqGain","Mozilla/5.0 (Windows NT 6.3; WOW64) AppleWebKit/537.36 (KHTML, like Gecko) Chrome/78.0.3904.99 Safari/537.36 Vivaldi/2.9.1705.41","0.98","","null","","You avoided this hive. You earned <b>0 </b>points.","","76","null","0","73","",""
"","html-button-response","162","632899","0.0-3.0-0.76","partial","Male","33","United States of America","","C505658","WA","freqGain","Mozilla/5.0 (Windows NT 6.3; WOW64) AppleWebKit/537.36 (KHTML, like Gecko) Chrome/78.0.3904.99 Safari/537.36 Vivaldi/2.9.1705.41","0.98","","1310","","<img src = 'img/A0-B1-L1-W1.jpg' width = '600'>","0","77","","","","",""
"","html-keyboard-response","163","634900","0.0-3.0-1.76","partial","Male","33","United States of America","","C505658","WA","freqGain","Mozilla/5.0 (Windows NT 6.3; WOW64) AppleWebKit/537.36 (KHTML, like Gecko) Chrome/78.0.3904.99 Safari/537.36 Vivaldi/2.9.1705.41","0.98","","null","","Ouch, you were stung! You lost <b>-1 </b>point.","","77","null","-1","72","",""
"","html-button-response","164","635683","0.0-3.0-0.77","partial","Male","33","United States of America","","C505658","WA","freqGain","Mozilla/5.0 (Windows NT 6.3; WOW64) AppleWebKit/537.36 (KHTML, like Gecko) Chrome/78.0.3904.99 Safari/537.36 Vivaldi/2.9.1705.41","0.98","","783","","<img src = 'img/A1-B0-L1-W0.jpg' width = '600'>","1","78","","","","",""
"","html-keyboard-response","165","637685","0.0-3.0-1.77","partial","Male","33","United States of America","","C505658","WA","freqGain","Mozilla/5.0 (Windows NT 6.3; WOW64) AppleWebKit/537.36 (KHTML, like Gecko) Chrome/78.0.3904.99 Safari/537.36 Vivaldi/2.9.1705.41","0.98","","null","","You avoided this hive. You earned <b>0 </b>points.","","78","null","0","72","",""
"","html-button-response","166","639036","0.0-3.0-0.78","partial","Male","33","United States of America","","C505658","WA","freqGain","Mozilla/5.0 (Windows NT 6.3; WOW64) AppleWebKit/537.36 (KHTML, like Gecko) Chrome/78.0.3904.99 Safari/537.36 Vivaldi/2.9.1705.41","0.98","","1351","","<img src = 'img/A0-B0-L1-W1.jpg' width = '600'>","0","79","","","","",""
"","html-keyboard-response","167","641038","0.0-3.0-1.78","partial","Male","33","United States of America","","C505658","WA","freqGain","Mozilla/5.0 (Windows NT 6.3; WOW64) AppleWebKit/537.36 (KHTML, like Gecko) Chrome/78.0.3904.99 Safari/537.36 Vivaldi/2.9.1705.41","0.98","","null","","Ouch, you were stung! You lost <b>-1 </b>point.","","79","null","-1","71","",""
"","html-button-response","168","642013","0.0-3.0-0.79","partial","Male","33","United States of America","","C505658","WA","freqGain","Mozilla/5.0 (Windows NT 6.3; WOW64) AppleWebKit/537.36 (KHTML, like Gecko) Chrome/78.0.3904.99 Safari/537.36 Vivaldi/2.9.1705.41","0.98","","975","","<img src = 'img/A1-B1-L1-W0.jpg' width = '600'>","1","80","","","","",""
"","html-keyboard-response","169","644014","0.0-3.0-1.79","partial","Male","33","United States of America","","C505658","WA","freqGain","Mozilla/5.0 (Windows NT 6.3; WOW64) AppleWebKit/537.36 (KHTML, like Gecko) Chrome/78.0.3904.99 Safari/537.36 Vivaldi/2.9.1705.41","0.98","","null","","You avoided this hive. You earned <b>0 </b>points.","","80","null","0","71","",""
"","html-button-response","170","645421","0.0-3.0-0.80","partial","Male","33","United States of America","","C505658","WA","freqGain","Mozilla/5.0 (Windows NT 6.3; WOW64) AppleWebKit/537.36 (KHTML, like Gecko) Chrome/78.0.3904.99 Safari/537.36 Vivaldi/2.9.1705.41","0.98","","1405","","<img src = 'img/A1-B0-L0-W1.jpg' width = '600'>","0","81","","","","",""
"","html-keyboard-response","171","647422","0.0-3.0-1.80","partial","Male","33","United States of America","","C505658","WA","freqGain","Mozilla/5.0 (Windows NT 6.3; WOW64) AppleWebKit/537.36 (KHTML, like Gecko) Chrome/78.0.3904.99 Safari/537.36 Vivaldi/2.9.1705.41","0.98","","null","","You successfully harvested honey! You earned <b>3 </b>points.","","81","null","3","74","",""
"","html-button-response","172","649173","0.0-3.0-0.81","partial","Male","33","United States of America","","C505658","WA","freqGain","Mozilla/5.0 (Windows NT 6.3; WOW64) AppleWebKit/537.36 (KHTML, like Gecko) Chrome/78.0.3904.99 Safari/537.36 Vivaldi/2.9.1705.41","0.98","","1750","","<img src = 'img/A0-B1-L1-W0.jpg' width = '600'>","1","82","","","","",""
"","html-keyboard-response","173","651174","0.0-3.0-1.81","partial","Male","33","United States of America","","C505658","WA","freqGain","Mozilla/5.0 (Windows NT 6.3; WOW64) AppleWebKit/537.36 (KHTML, like Gecko) Chrome/78.0.3904.99 Safari/537.36 Vivaldi/2.9.1705.41","0.98","","null","","You avoided this hive. You earned <b>0 </b>points.","","82","null","0","74","",""
"","html-button-response","174","652157","0.0-3.0-0.82","partial","Male","33","United States of America","","C505658","WA","freqGain","Mozilla/5.0 (Windows NT 6.3; WOW64) AppleWebKit/537.36 (KHTML, like Gecko) Chrome/78.0.3904.99 Safari/537.36 Vivaldi/2.9.1705.41","0.98","","982","","<img src = 'img/A1-B0-L0-W0.jpg' width = '600'>","1","83","","","","",""
"","html-keyboard-response","175","654169","0.0-3.0-1.82","partial","Male","33","United States of America","","C505658","WA","freqGain","Mozilla/5.0 (Windows NT 6.3; WOW64) AppleWebKit/537.36 (KHTML, like Gecko) Chrome/78.0.3904.99 Safari/537.36 Vivaldi/2.9.1705.41","0.98","","null","","You avoided this hive. You earned <b>0 </b>points.","","83","null","0","74","",""
"","html-button-response","176","655679","0.0-3.0-0.83","partial","Male","33","United States of America","","C505658","WA","freqGain","Mozilla/5.0 (Windows NT 6.3; WOW64) AppleWebKit/537.36 (KHTML, like Gecko) Chrome/78.0.3904.99 Safari/537.36 Vivaldi/2.9.1705.41","0.98","","1508","","<img src = 'img/A1-B0-L1-W0.jpg' width = '600'>","1","84","","","","",""
"","html-keyboard-response","177","657681","0.0-3.0-1.83","partial","Male","33","United States of America","","C505658","WA","freqGain","Mozilla/5.0 (Windows NT 6.3; WOW64) AppleWebKit/537.36 (KHTML, like Gecko) Chrome/78.0.3904.99 Safari/537.36 Vivaldi/2.9.1705.41","0.98","","null","","You avoided this hive. You earned <b>0 </b>points.","","84","null","0","74","",""
"","html-button-response","178","658806","0.0-3.0-0.84","partial","Male","33","United States of America","","C505658","WA","freqGain","Mozilla/5.0 (Windows NT 6.3; WOW64) AppleWebKit/537.36 (KHTML, like Gecko) Chrome/78.0.3904.99 Safari/537.36 Vivaldi/2.9.1705.41","0.98","","1125","","<img src = 'img/A0-B1-L1-W1.jpg' width = '600'>","0","85","","","","",""
"","html-keyboard-response","179","660808","0.0-3.0-1.84","partial","Male","33","United States of America","","C505658","WA","freqGain","Mozilla/5.0 (Windows NT 6.3; WOW64) AppleWebKit/537.36 (KHTML, like Gecko) Chrome/78.0.3904.99 Safari/537.36 Vivaldi/2.9.1705.41","0.98","","null","","Ouch, you were stung! You lost <b>-1 </b>point.","","85","null","-1","73","",""
"","html-button-response","180","661782","0.0-3.0-0.85","partial","Male","33","United States of America","","C505658","WA","freqGain","Mozilla/5.0 (Windows NT 6.3; WOW64) AppleWebKit/537.36 (KHTML, like Gecko) Chrome/78.0.3904.99 Safari/537.36 Vivaldi/2.9.1705.41","0.98","","974","","<img src = 'img/A0-B0-L1-W0.jpg' width = '600'>","1","86","","","","",""
"","html-keyboard-response","181","663784","0.0-3.0-1.85","partial","Male","33","United States of America","","C505658","WA","freqGain","Mozilla/5.0 (Windows NT 6.3; WOW64) AppleWebKit/537.36 (KHTML, like Gecko) Chrome/78.0.3904.99 Safari/537.36 Vivaldi/2.9.1705.41","0.98","","null","","You avoided this hive. You earned <b>0 </b>points.","","86","null","0","73","",""
"","html-button-response","182","670673","0.0-3.0-0.86","partial","Male","33","United States of America","","C505658","WA","freqGain","Mozilla/5.0 (Windows NT 6.3; WOW64) AppleWebKit/537.36 (KHTML, like Gecko) Chrome/78.0.3904.99 Safari/537.36 Vivaldi/2.9.1705.41","0.98","","6888","","<img src = 'img/A0-B1-L0-W1.jpg' width = '600'>","0","87","","","","",""
"","html-keyboard-response","183","672675","0.0-3.0-1.86","partial","Male","33","United States of America","","C505658","WA","freqGain","Mozilla/5.0 (Windows NT 6.3; WOW64) AppleWebKit/537.36 (KHTML, like Gecko) Chrome/78.0.3904.99 Safari/537.36 Vivaldi/2.9.1705.41","0.98","","null","","Ouch, you were stung! You lost <b>-1 </b>point.","","87","null","-1","72","",""
"","html-button-response","184","674009","0.0-3.0-0.87","partial","Male","33","United States of America","","C505658","WA","freqGain","Mozilla/5.0 (Windows NT 6.3; WOW64) AppleWebKit/537.36 (KHTML, like Gecko) Chrome/78.0.3904.99 Safari/537.36 Vivaldi/2.9.1705.41","0.98","","1332","","<img src = 'img/A1-B1-L0-W1.jpg' width = '600'>","1","88","","","","",""
"","html-keyboard-response","185","676010","0.0-3.0-1.87","partial","Male","33","United States of America","","C505658","WA","freqGain","Mozilla/5.0 (Windows NT 6.3; WOW64) AppleWebKit/537.36 (KHTML, like Gecko) Chrome/78.0.3904.99 Safari/537.36 Vivaldi/2.9.1705.41","0.98","","null","","You avoided this hive. You earned <b>0 </b>points.","","88","null","0","72","",""
"","html-button-response","186","677544","0.0-3.0-0.88","partial","Male","33","United States of America","","C505658","WA","freqGain","Mozilla/5.0 (Windows NT 6.3; WOW64) AppleWebKit/537.36 (KHTML, like Gecko) Chrome/78.0.3904.99 Safari/537.36 Vivaldi/2.9.1705.41","0.98","","1533","","<img src = 'img/A0-B0-L0-W1.jpg' width = '600'>","0","89","","","","",""
"","html-keyboard-response","187","679546","0.0-3.0-1.88","partial","Male","33","United States of America","","C505658","WA","freqGain","Mozilla/5.0 (Windows NT 6.3; WOW64) AppleWebKit/537.36 (KHTML, like Gecko) Chrome/78.0.3904.99 Safari/537.36 Vivaldi/2.9.1705.41","0.98","","null","","Ouch, you were stung! You lost <b>-1 </b>point.","","89","null","-1","71","",""
"","html-button-response","188","680512","0.0-3.0-0.89","partial","Male","33","United States of America","","C505658","WA","freqGain","Mozilla/5.0 (Windows NT 6.3; WOW64) AppleWebKit/537.36 (KHTML, like Gecko) Chrome/78.0.3904.99 Safari/537.36 Vivaldi/2.9.1705.41","0.98","","966","","<img src = 'img/A1-B1-L1-W0.jpg' width = '600'>","1","90","","","","",""
"","html-keyboard-response","189","682513","0.0-3.0-1.89","partial","Male","33","United States of America","","C505658","WA","freqGain","Mozilla/5.0 (Windows NT 6.3; WOW64) AppleWebKit/537.36 (KHTML, like Gecko) Chrome/78.0.3904.99 Safari/537.36 Vivaldi/2.9.1705.41","0.98","","null","","You avoided this hive. You earned <b>0 </b>points.","","90","null","0","71","",""
"","html-button-response","190","684634","0.0-3.0-0.90","partial","Male","33","United States of America","","C505658","WA","freqGain","Mozilla/5.0 (Windows NT 6.3; WOW64) AppleWebKit/537.36 (KHTML, like Gecko) Chrome/78.0.3904.99 Safari/537.36 Vivaldi/2.9.1705.41","0.98","","2119","","<img src = 'img/A1-B1-L1-W1.jpg' width = '600'>","0","91","","","","",""
"","html-keyboard-response","191","686636","0.0-3.0-1.90","partial","Male","33","United States of America","","C505658","WA","freqGain","Mozilla/5.0 (Windows NT 6.3; WOW64) AppleWebKit/537.36 (KHTML, like Gecko) Chrome/78.0.3904.99 Safari/537.36 Vivaldi/2.9.1705.41","0.98","","null","","You successfully harvested honey! You earned <b>3 </b>points.","","91","null","3","74","",""
"","html-button-response","192","687841","0.0-3.0-0.91","partial","Male","33","United States of America","","C505658","WA","freqGain","Mozilla/5.0 (Windows NT 6.3; WOW64) AppleWebKit/537.36 (KHTML, like Gecko) Chrome/78.0.3904.99 Safari/537.36 Vivaldi/2.9.1705.41","0.98","","1203","","<img src = 'img/A0-B0-L0-W0.jpg' width = '600'>","1","92","","","","",""
"","html-keyboard-response","193","689842","0.0-3.0-1.91","partial","Male","33","United States of America","","C505658","WA","freqGain","Mozilla/5.0 (Windows NT 6.3; WOW64) AppleWebKit/537.36 (KHTML, like Gecko) Chrome/78.0.3904.99 Safari/537.36 Vivaldi/2.9.1705.41","0.98","","null","","You avoided this hive. You earned <b>0 </b>points.","","92","null","0","74","",""
"","html-button-response","194","690801","0.0-3.0-0.92","partial","Male","33","United States of America","","C505658","WA","freqGain","Mozilla/5.0 (Windows NT 6.3; WOW64) AppleWebKit/537.36 (KHTML, like Gecko) Chrome/78.0.3904.99 Safari/537.36 Vivaldi/2.9.1705.41","0.98","","959","","<img src = 'img/A0-B1-L0-W0.jpg' width = '600'>","1","93","","","","",""
"","html-keyboard-response","195","692803","0.0-3.0-1.92","partial","Male","33","United States of America","","C505658","WA","freqGain","Mozilla/5.0 (Windows NT 6.3; WOW64) AppleWebKit/537.36 (KHTML, like Gecko) Chrome/78.0.3904.99 Safari/537.36 Vivaldi/2.9.1705.41","0.98","","null","","You avoided this hive. You earned <b>0 </b>points.","","93","null","0","74","",""
"","html-button-response","196","695762","0.0-3.0-0.93","partial","Male","33","United States of America","","C505658","WA","freqGain","Mozilla/5.0 (Windows NT 6.3; WOW64) AppleWebKit/537.36 (KHTML, like Gecko) Chrome/78.0.3904.99 Safari/537.36 Vivaldi/2.9.1705.41","0.98","","2958","","<img src = 'img/A1-B0-L1-W1.jpg' width = '600'>","0","94","","","","",""
"","html-keyboard-response","197","697763","0.0-3.0-1.93","partial","Male","33","United States of America","","C505658","WA","freqGain","Mozilla/5.0 (Windows NT 6.3; WOW64) AppleWebKit/537.36 (KHTML, like Gecko) Chrome/78.0.3904.99 Safari/537.36 Vivaldi/2.9.1705.41","0.98","","null","","You successfully harvested honey! You earned <b>3 </b>points.","","94","null","3","77","",""
"","html-button-response","198","701323","0.0-3.0-0.94","partial","Male","33","United States of America","","C505658","WA","freqGain","Mozilla/5.0 (Windows NT 6.3; WOW64) AppleWebKit/537.36 (KHTML, like Gecko) Chrome/78.0.3904.99 Safari/537.36 Vivaldi/2.9.1705.41","0.98","","3559","","<img src = 'img/A0-B0-L1-W1.jpg' width = '600'>","0","95","","","","",""
"","html-keyboard-response","199","703324","0.0-3.0-1.94","partial","Male","33","United States of America","","C505658","WA","freqGain","Mozilla/5.0 (Windows NT 6.3; WOW64) AppleWebKit/537.36 (KHTML, like Gecko) Chrome/78.0.3904.99 Safari/537.36 Vivaldi/2.9.1705.41","0.98","","null","","Ouch, you were stung! You lost <b>-1 </b>point.","","95","null","-1","76","",""
"","html-button-response","200","707955","0.0-3.0-0.95","partial","Male","33","United States of America","","C505658","WA","freqGain","Mozilla/5.0 (Windows NT 6.3; WOW64) AppleWebKit/537.36 (KHTML, like Gecko) Chrome/78.0.3904.99 Safari/537.36 Vivaldi/2.9.1705.41","0.98","","4630","","<img src = 'img/A1-B1-L0-W0.jpg' width = '600'>","1","96","","","","",""
"","html-keyboard-response","201","709957","0.0-3.0-1.95","partial","Male","33","United States of America","","C505658","WA","freqGain","Mozilla/5.0 (Windows NT 6.3; WOW64) AppleWebKit/537.36 (KHTML, like Gecko) Chrome/78.0.3904.99 Safari/537.36 Vivaldi/2.9.1705.41","0.98","","null","","You avoided this hive. You earned <b>0 </b>points.","","96","null","0","76","",""
"","html-button-response","202","712046","0.0-3.0-0.96","partial","Male","33","United States of America","","C505658","WA","freqGain","Mozilla/5.0 (Windows NT 6.3; WOW64) AppleWebKit/537.36 (KHTML, like Gecko) Chrome/78.0.3904.99 Safari/537.36 Vivaldi/2.9.1705.41","0.98","","2088","","<img src = 'img/A0-B1-L1-W0.jpg' width = '600'>","1","97","","","","",""
"","html-keyboard-response","203","714048","0.0-3.0-1.96","partial","Male","33","United States of America","","C505658","WA","freqGain","Mozilla/5.0 (Windows NT 6.3; WOW64) AppleWebKit/537.36 (KHTML, like Gecko) Chrome/78.0.3904.99 Safari/537.36 Vivaldi/2.9.1705.41","0.98","","null","","You avoided this hive. You earned <b>0 </b>points.","","97","null","0","76","",""
"","html-button-response","204","715740","0.0-3.0-0.97","partial","Male","33","United States of America","","C505658","WA","freqGain","Mozilla/5.0 (Windows NT 6.3; WOW64) AppleWebKit/537.36 (KHTML, like Gecko) Chrome/78.0.3904.99 Safari/537.36 Vivaldi/2.9.1705.41","0.98","","1692","","<img src = 'img/A1-B0-L1-W0.jpg' width = '600'>","1","98","","","","",""
"","html-keyboard-response","205","717742","0.0-3.0-1.97","partial","Male","33","United States of America","","C505658","WA","freqGain","Mozilla/5.0 (Windows NT 6.3; WOW64) AppleWebKit/537.36 (KHTML, like Gecko) Chrome/78.0.3904.99 Safari/537.36 Vivaldi/2.9.1705.41","0.98","","null","","You avoided this hive. You earned <b>0 </b>points.","","98","null","0","76","",""
"","html-button-response","206","719860","0.0-3.0-0.98","partial","Male","33","United States of America","","C505658","WA","freqGain","Mozilla/5.0 (Windows NT 6.3; WOW64) AppleWebKit/537.36 (KHTML, like Gecko) Chrome/78.0.3904.99 Safari/537.36 Vivaldi/2.9.1705.41","0.98","","2118","","<img src = 'img/A0-B1-L1-W1.jpg' width = '600'>","0","99","","","","",""
"","html-keyboard-response","207","721862","0.0-3.0-1.98","partial","Male","33","United States of America","","C505658","WA","freqGain","Mozilla/5.0 (Windows NT 6.3; WOW64) AppleWebKit/537.36 (KHTML, like Gecko) Chrome/78.0.3904.99 Safari/537.36 Vivaldi/2.9.1705.41","0.98","","null","","Ouch, you were stung! You lost <b>-1 </b>point.","","99","null","-1","75","",""
"","html-button-response","208","723285","0.0-3.0-0.99","partial","Male","33","United States of America","","C505658","WA","freqGain","Mozilla/5.0 (Windows NT 6.3; WOW64) AppleWebKit/537.36 (KHTML, like Gecko) Chrome/78.0.3904.99 Safari/537.36 Vivaldi/2.9.1705.41","0.98","","1423","","<img src = 'img/A1-B0-L0-W1.jpg' width = '600'>","0","100","","","","",""
"","html-keyboard-response","209","725287","0.0-3.0-1.99","partial","Male","33","United States of America","","C505658","WA","freqGain","Mozilla/5.0 (Windows NT 6.3; WOW64) AppleWebKit/537.36 (KHTML, like Gecko) Chrome/78.0.3904.99 Safari/537.36 Vivaldi/2.9.1705.41","0.98","","null","","You successfully harvested honey! You earned <b>3 </b>points.","","100","null","3","78","",""
"","html-button-response","210","732806","0.0-3.0-0.100","partial","Male","33","United States of America","","C505658","WA","freqGain","Mozilla/5.0 (Windows NT 6.3; WOW64) AppleWebKit/537.36 (KHTML, like Gecko) Chrome/78.0.3904.99 Safari/537.36 Vivaldi/2.9.1705.41","0.98","","7518","","<img src = 'img/A1-B1-L1-W1.jpg' width = '600'>","1","101","","","","",""
"","html-keyboard-response","211","734808","0.0-3.0-1.100","partial","Male","33","United States of America","","C505658","WA","freqGain","Mozilla/5.0 (Windows NT 6.3; WOW64) AppleWebKit/537.36 (KHTML, like Gecko) Chrome/78.0.3904.99 Safari/537.36 Vivaldi/2.9.1705.41","0.98","","null","","You avoided this hive. You earned <b>0 </b>points.","","101","null","0","78","",""
"","html-button-response","212","740583","0.0-3.0-0.101","partial","Male","33","United States of America","","C505658","WA","freqGain","Mozilla/5.0 (Windows NT 6.3; WOW64) AppleWebKit/537.36 (KHTML, like Gecko) Chrome/78.0.3904.99 Safari/537.36 Vivaldi/2.9.1705.41","0.98","","5773","","<img src = 'img/A0-B1-L0-W1.jpg' width = '600'>","0","102","","","","",""
"","html-keyboard-response","213","742583","0.0-3.0-1.101","partial","Male","33","United States of America","","C505658","WA","freqGain","Mozilla/5.0 (Windows NT 6.3; WOW64) AppleWebKit/537.36 (KHTML, like Gecko) Chrome/78.0.3904.99 Safari/537.36 Vivaldi/2.9.1705.41","0.98","","null","","Ouch, you were stung! You lost <b>-1 </b>point.","","102","null","-1","77","",""
"","html-button-response","214","743847","0.0-3.0-0.102","partial","Male","33","United States of America","","C505658","WA","freqGain","Mozilla/5.0 (Windows NT 6.3; WOW64) AppleWebKit/537.36 (KHTML, like Gecko) Chrome/78.0.3904.99 Safari/537.36 Vivaldi/2.9.1705.41","0.98","","1262","","<img src = 'img/A0-B0-L1-W1.jpg' width = '600'>","0","103","","","","",""
"","html-keyboard-response","215","745851","0.0-3.0-1.102","partial","Male","33","United States of America","","C505658","WA","freqGain","Mozilla/5.0 (Windows NT 6.3; WOW64) AppleWebKit/537.36 (KHTML, like Gecko) Chrome/78.0.3904.99 Safari/537.36 Vivaldi/2.9.1705.41","0.98","","null","","Ouch, you were stung! You lost <b>-1 </b>point.","","103","null","-1","76","",""
"","html-button-response","216","748359","0.0-3.0-0.103","partial","Male","33","United States of America","","C505658","WA","freqGain","Mozilla/5.0 (Windows NT 6.3; WOW64) AppleWebKit/537.36 (KHTML, like Gecko) Chrome/78.0.3904.99 Safari/537.36 Vivaldi/2.9.1705.41","0.98","","2506","","<img src = 'img/A0-B0-L0-W1.jpg' width = '600'>","0","104","","","","",""
"","html-keyboard-response","217","750361","0.0-3.0-1.103","partial","Male","33","United States of America","","C505658","WA","freqGain","Mozilla/5.0 (Windows NT 6.3; WOW64) AppleWebKit/537.36 (KHTML, like Gecko) Chrome/78.0.3904.99 Safari/537.36 Vivaldi/2.9.1705.41","0.98","","null","","Ouch, you were stung! You lost <b>-1 </b>point.","","104","null","-1","75","",""
"","html-button-response","218","752385","0.0-3.0-0.104","partial","Male","33","United States of America","","C505658","WA","freqGain","Mozilla/5.0 (Windows NT 6.3; WOW64) AppleWebKit/537.36 (KHTML, like Gecko) Chrome/78.0.3904.99 Safari/537.36 Vivaldi/2.9.1705.41","0.98","","2023","","<img src = 'img/A1-B0-L0-W0.jpg' width = '600'>","1","105","","","","",""
"","html-keyboard-response","219","754387","0.0-3.0-1.104","partial","Male","33","United States of America","","C505658","WA","freqGain","Mozilla/5.0 (Windows NT 6.3; WOW64) AppleWebKit/537.36 (KHTML, like Gecko) Chrome/78.0.3904.99 Safari/537.36 Vivaldi/2.9.1705.41","0.98","","null","","You avoided this hive. You earned <b>0 </b>points.","","105","null","0","75","",""
"","html-button-response","220","758529","0.0-3.0-0.105","partial","Male","33","United States of America","","C505658","WA","freqGain","Mozilla/5.0 (Windows NT 6.3; WOW64) AppleWebKit/537.36 (KHTML, like Gecko) Chrome/78.0.3904.99 Safari/537.36 Vivaldi/2.9.1705.41","0.98","","4141","","<img src = 'img/A1-B1-L1-W0.jpg' width = '600'>","1","106","","","","",""
"","html-keyboard-response","221","760530","0.0-3.0-1.105","partial","Male","33","United States of America","","C505658","WA","freqGain","Mozilla/5.0 (Windows NT 6.3; WOW64) AppleWebKit/537.36 (KHTML, like Gecko) Chrome/78.0.3904.99 Safari/537.36 Vivaldi/2.9.1705.41","0.98","","null","","You avoided this hive. You earned <b>0 </b>points.","","106","null","0","75","",""
"","html-button-response","222","761530","0.0-3.0-0.106","partial","Male","33","United States of America","","C505658","WA","freqGain","Mozilla/5.0 (Windows NT 6.3; WOW64) AppleWebKit/537.36 (KHTML, like Gecko) Chrome/78.0.3904.99 Safari/537.36 Vivaldi/2.9.1705.41","0.98","","999","","<img src = 'img/A1-B1-L0-W0.jpg' width = '600'>","1","107","","","","",""
"","html-keyboard-response","223","763532","0.0-3.0-1.106","partial","Male","33","United States of America","","C505658","WA","freqGain","Mozilla/5.0 (Windows NT 6.3; WOW64) AppleWebKit/537.36 (KHTML, like Gecko) Chrome/78.0.3904.99 Safari/537.36 Vivaldi/2.9.1705.41","0.98","","null","","You avoided this hive. You earned <b>0 </b>points.","","107","null","0","75","",""
"","html-button-response","224","764666","0.0-3.0-0.107","partial","Male","33","United States of America","","C505658","WA","freqGain","Mozilla/5.0 (Windows NT 6.3; WOW64) AppleWebKit/537.36 (KHTML, like Gecko) Chrome/78.0.3904.99 Safari/537.36 Vivaldi/2.9.1705.41","0.98","","1134","","<img src = 'img/A1-B0-L1-W1.jpg' width = '600'>","0","108","","","","",""
"","html-keyboard-response","225","766667","0.0-3.0-1.107","partial","Male","33","United States of America","","C505658","WA","freqGain","Mozilla/5.0 (Windows NT 6.3; WOW64) AppleWebKit/537.36 (KHTML, like Gecko) Chrome/78.0.3904.99 Safari/537.36 Vivaldi/2.9.1705.41","0.98","","null","","You successfully harvested honey! You earned <b>3 </b>points.","","108","null","3","78","",""
"","html-button-response","226","767867","0.0-3.0-0.108","partial","Male","33","United States of America","","C505658","WA","freqGain","Mozilla/5.0 (Windows NT 6.3; WOW64) AppleWebKit/537.36 (KHTML, like Gecko) Chrome/78.0.3904.99 Safari/537.36 Vivaldi/2.9.1705.41","0.98","","1199","","<img src = 'img/A0-B0-L0-W0.jpg' width = '600'>","1","109","","","","",""
"","html-keyboard-response","227","769868","0.0-3.0-1.108","partial","Male","33","United States of America","","C505658","WA","freqGain","Mozilla/5.0 (Windows NT 6.3; WOW64) AppleWebKit/537.36 (KHTML, like Gecko) Chrome/78.0.3904.99 Safari/537.36 Vivaldi/2.9.1705.41","0.98","","null","","You avoided this hive. You earned <b>0 </b>points.","","109","null","0","78","",""
"","html-button-response","228","771458","0.0-3.0-0.109","partial","Male","33","United States of America","","C505658","WA","freqGain","Mozilla/5.0 (Windows NT 6.3; WOW64) AppleWebKit/537.36 (KHTML, like Gecko) Chrome/78.0.3904.99 Safari/537.36 Vivaldi/2.9.1705.41","0.98","","1589","","<img src = 'img/A1-B1-L0-W1.jpg' width = '600'>","1","110","","","","",""
"","html-keyboard-response","229","773459","0.0-3.0-1.109","partial","Male","33","United States of America","","C505658","WA","freqGain","Mozilla/5.0 (Windows NT 6.3; WOW64) AppleWebKit/537.36 (KHTML, like Gecko) Chrome/78.0.3904.99 Safari/537.36 Vivaldi/2.9.1705.41","0.98","","null","","You avoided this hive. You earned <b>0 </b>points.","","110","null","0","78","",""
"","html-button-response","230","796143","0.0-3.0-0.110","partial","Male","33","United States of America","","C505658","WA","freqGain","Mozilla/5.0 (Windows NT 6.3; WOW64) AppleWebKit/537.36 (KHTML, like Gecko) Chrome/78.0.3904.99 Safari/537.36 Vivaldi/2.9.1705.41","0.98","","22682","","<img src = 'img/A0-B1-L0-W0.jpg' width = '600'>","1","111","","","","",""
"","html-keyboard-response","231","798144","0.0-3.0-1.110","partial","Male","33","United States of America","","C505658","WA","freqGain","Mozilla/5.0 (Windows NT 6.3; WOW64) AppleWebKit/537.36 (KHTML, like Gecko) Chrome/78.0.3904.99 Safari/537.36 Vivaldi/2.9.1705.41","0.98","","null","","You avoided this hive. You earned <b>0 </b>points.","","111","null","0","78","",""
"","html-button-response","232","798990","0.0-3.0-0.111","partial","Male","33","United States of America","","C505658","WA","freqGain","Mozilla/5.0 (Windows NT 6.3; WOW64) AppleWebKit/537.36 (KHTML, like Gecko) Chrome/78.0.3904.99 Safari/537.36 Vivaldi/2.9.1705.41","0.98","","844","","<img src = 'img/A0-B0-L1-W0.jpg' width = '600'>","1","112","","","","",""
"","html-keyboard-response","233","800990","0.0-3.0-1.111","partial","Male","33","United States of America","","C505658","WA","freqGain","Mozilla/5.0 (Windows NT 6.3; WOW64) AppleWebKit/537.36 (KHTML, like Gecko) Chrome/78.0.3904.99 Safari/537.36 Vivaldi/2.9.1705.41","0.98","","null","","You avoided this hive. You earned <b>0 </b>points.","","112","null","0","78","",""
"","html-button-response","234","801575","0.0-3.0-0.112","partial","Male","33","United States of America","","C505658","WA","freqGain","Mozilla/5.0 (Windows NT 6.3; WOW64) AppleWebKit/537.36 (KHTML, like Gecko) Chrome/78.0.3904.99 Safari/537.36 Vivaldi/2.9.1705.41","0.98","","584","","<img src = 'img/A0-B1-L0-W1.jpg' width = '600'>","1","113","","","","",""
"","html-keyboard-response","235","803577","0.0-3.0-1.112","partial","Male","33","United States of America","","C505658","WA","freqGain","Mozilla/5.0 (Windows NT 6.3; WOW64) AppleWebKit/537.36 (KHTML, like Gecko) Chrome/78.0.3904.99 Safari/537.36 Vivaldi/2.9.1705.41","0.98","","null","","You avoided this hive. You earned <b>0 </b>points.","","113","null","0","78","",""
"","html-button-response","236","804558","0.0-3.0-0.113","partial","Male","33","United States of America","","C505658","WA","freqGain","Mozilla/5.0 (Windows NT 6.3; WOW64) AppleWebKit/537.36 (KHTML, like Gecko) Chrome/78.0.3904.99 Safari/537.36 Vivaldi/2.9.1705.41","0.98","","979","","<img src = 'img/A0-B0-L0-W0.jpg' width = '600'>","1","114","","","","",""
"","html-keyboard-response","237","806558","0.0-3.0-1.113","partial","Male","33","United States of America","","C505658","WA","freqGain","Mozilla/5.0 (Windows NT 6.3; WOW64) AppleWebKit/537.36 (KHTML, like Gecko) Chrome/78.0.3904.99 Safari/537.36 Vivaldi/2.9.1705.41","0.98","","null","","You avoided this hive. You earned <b>0 </b>points.","","114","null","0","78","",""
"","html-button-response","238","807374","0.0-3.0-0.114","partial","Male","33","United States of America","","C505658","WA","freqGain","Mozilla/5.0 (Windows NT 6.3; WOW64) AppleWebKit/537.36 (KHTML, like Gecko) Chrome/78.0.3904.99 Safari/537.36 Vivaldi/2.9.1705.41","0.98","","815","","<img src = 'img/A0-B0-L0-W1.jpg' width = '600'>","0","115","","","","",""
"","html-keyboard-response","239","809375","0.0-3.0-1.114","partial","Male","33","United States of America","","C505658","WA","freqGain","Mozilla/5.0 (Windows NT 6.3; WOW64) AppleWebKit/537.36 (KHTML, like Gecko) Chrome/78.0.3904.99 Safari/537.36 Vivaldi/2.9.1705.41","0.98","","null","","Ouch, you were stung! You lost <b>-1 </b>point.","","115","null","-1","77","",""
"","html-button-response","240","809919","0.0-3.0-0.115","partial","Male","33","United States of America","","C505658","WA","freqGain","Mozilla/5.0 (Windows NT 6.3; WOW64) AppleWebKit/537.36 (KHTML, like Gecko) Chrome/78.0.3904.99 Safari/537.36 Vivaldi/2.9.1705.41","0.98","","542","","<img src = 'img/A0-B0-L1-W0.jpg' width = '600'>","1","116","","","","",""
"","html-keyboard-response","241","811920","0.0-3.0-1.115","partial","Male","33","United States of America","","C505658","WA","freqGain","Mozilla/5.0 (Windows NT 6.3; WOW64) AppleWebKit/537.36 (KHTML, like Gecko) Chrome/78.0.3904.99 Safari/537.36 Vivaldi/2.9.1705.41","0.98","","null","","You avoided this hive. You earned <b>0 </b>points.","","116","null","0","77","",""
"","html-button-response","242","812472","0.0-3.0-0.116","partial","Male","33","United States of America","","C505658","WA","freqGain","Mozilla/5.0 (Windows NT 6.3; WOW64) AppleWebKit/537.36 (KHTML, like Gecko) Chrome/78.0.3904.99 Safari/537.36 Vivaldi/2.9.1705.41","0.98","","550","","<img src = 'img/A0-B1-L1-W0.jpg' width = '600'>","1","117","","","","",""
"","html-keyboard-response","243","814474","0.0-3.0-1.116","partial","Male","33","United States of America","","C505658","WA","freqGain","Mozilla/5.0 (Windows NT 6.3; WOW64) AppleWebKit/537.36 (KHTML, like Gecko) Chrome/78.0.3904.99 Safari/537.36 Vivaldi/2.9.1705.41","0.98","","null","","You avoided this hive. You earned <b>0 </b>points.","","117","null","0","77","",""
"","html-button-response","244","815680","0.0-3.0-0.117","partial","Male","33","United States of America","","C505658","WA","freqGain","Mozilla/5.0 (Windows NT 6.3; WOW64) AppleWebKit/537.36 (KHTML, like Gecko) Chrome/78.0.3904.99 Safari/537.36 Vivaldi/2.9.1705.41","0.98","","1205","","<img src = 'img/A1-B0-L1-W1.jpg' width = '600'>","0","118","","","","",""
"","html-keyboard-response","245","817681","0.0-3.0-1.117","partial","Male","33","United States of America","","C505658","WA","freqGain","Mozilla/5.0 (Windows NT 6.3; WOW64) AppleWebKit/537.36 (KHTML, like Gecko) Chrome/78.0.3904.99 Safari/537.36 Vivaldi/2.9.1705.41","0.98","","null","","You successfully harvested honey! You earned <b>3 </b>points.","","118","null","3","80","",""
"","html-button-response","246","818751","0.0-3.0-0.118","partial","Male","33","United States of America","","C505658","WA","freqGain","Mozilla/5.0 (Windows NT 6.3; WOW64) AppleWebKit/537.36 (KHTML, like Gecko) Chrome/78.0.3904.99 Safari/537.36 Vivaldi/2.9.1705.41","0.98","","1069","","<img src = 'img/A1-B0-L0-W1.jpg' width = '600'>","0","119","","","","",""
"","html-keyboard-response","247","820752","0.0-3.0-1.118","partial","Male","33","United States of America","","C505658","WA","freqGain","Mozilla/5.0 (Windows NT 6.3; WOW64) AppleWebKit/537.36 (KHTML, like Gecko) Chrome/78.0.3904.99 Safari/537.36 Vivaldi/2.9.1705.41","0.98","","null","","You successfully harvested honey! You earned <b>3 </b>points.","","119","null","3","83","",""
"","html-button-response","248","821839","0.0-3.0-0.119","partial","Male","33","United States of America","","C505658","WA","freqGain","Mozilla/5.0 (Windows NT 6.3; WOW64) AppleWebKit/537.36 (KHTML, like Gecko) Chrome/78.0.3904.99 Safari/537.36 Vivaldi/2.9.1705.41","0.98","","1086","","<img src = 'img/A0-B0-L1-W1.jpg' width = '600'>","0","120","","","","",""
"","html-keyboard-response","249","823840","0.0-3.0-1.119","partial","Male","33","United States of America","","C505658","WA","freqGain","Mozilla/5.0 (Windows NT 6.3; WOW64) AppleWebKit/537.36 (KHTML, like Gecko) Chrome/78.0.3904.99 Safari/537.36 Vivaldi/2.9.1705.41","0.98","","null","","Ouch, you were stung! You lost <b>-1 </b>point.","","120","null","-1","82","",""
"","html-button-response","250","825153","0.0-3.0-0.120","partial","Male","33","United States of America","","C505658","WA","freqGain","Mozilla/5.0 (Windows NT 6.3; WOW64) AppleWebKit/537.36 (KHTML, like Gecko) Chrome/78.0.3904.99 Safari/537.36 Vivaldi/2.9.1705.41","0.98","","1311","","<img src = 'img/A0-B1-L1-W1.jpg' width = '600'>","0","121","","","","",""
"","html-keyboard-response","251","827154","0.0-3.0-1.120","partial","Male","33","United States of America","","C505658","WA","freqGain","Mozilla/5.0 (Windows NT 6.3; WOW64) AppleWebKit/537.36 (KHTML, like Gecko) Chrome/78.0.3904.99 Safari/537.36 Vivaldi/2.9.1705.41","0.98","","null","","Ouch, you were stung! You lost <b>-1 </b>point.","","121","null","-1","81","",""
"","html-button-response","252","828529","0.0-3.0-0.121","partial","Male","33","United States of America","","C505658","WA","freqGain","Mozilla/5.0 (Windows NT 6.3; WOW64) AppleWebKit/537.36 (KHTML, like Gecko) Chrome/78.0.3904.99 Safari/537.36 Vivaldi/2.9.1705.41","0.98","","1373","","<img src = 'img/A1-B1-L0-W1.jpg' width = '600'>","0","122","","","","",""
"","html-keyboard-response","253","830530","0.0-3.0-1.121","partial","Male","33","United States of America","","C505658","WA","freqGain","Mozilla/5.0 (Windows NT 6.3; WOW64) AppleWebKit/537.36 (KHTML, like Gecko) Chrome/78.0.3904.99 Safari/537.36 Vivaldi/2.9.1705.41","0.98","","null","","You successfully harvested honey! You earned <b>3 </b>points.","","122","null","3","84","",""
"","html-button-response","254","831593","0.0-3.0-0.122","partial","Male","33","United States of America","","C505658","WA","freqGain","Mozilla/5.0 (Windows NT 6.3; WOW64) AppleWebKit/537.36 (KHTML, like Gecko) Chrome/78.0.3904.99 Safari/537.36 Vivaldi/2.9.1705.41","0.98","","1063","","<img src = 'img/A1-B1-L1-W0.jpg' width = '600'>","1","123","","","","",""
"","html-keyboard-response","255","833594","0.0-3.0-1.122","partial","Male","33","United States of America","","C505658","WA","freqGain","Mozilla/5.0 (Windows NT 6.3; WOW64) AppleWebKit/537.36 (KHTML, like Gecko) Chrome/78.0.3904.99 Safari/537.36 Vivaldi/2.9.1705.41","0.98","","null","","You avoided this hive. You earned <b>0 </b>points.","","123","null","0","84","",""
"","html-button-response","256","834506","0.0-3.0-0.123","partial","Male","33","United States of America","","C505658","WA","freqGain","Mozilla/5.0 (Windows NT 6.3; WOW64) AppleWebKit/537.36 (KHTML, like Gecko) Chrome/78.0.3904.99 Safari/537.36 Vivaldi/2.9.1705.41","0.98","","911","","<img src = 'img/A1-B0-L0-W0.jpg' width = '600'>","1","124","","","","",""
"","html-keyboard-response","257","836508","0.0-3.0-1.123","partial","Male","33","United States of America","","C505658","WA","freqGain","Mozilla/5.0 (Windows NT 6.3; WOW64) AppleWebKit/537.36 (KHTML, like Gecko) Chrome/78.0.3904.99 Safari/537.36 Vivaldi/2.9.1705.41","0.98","","null","","You avoided this hive. You earned <b>0 </b>points.","","124","null","0","84","",""
"","html-button-response","258","837074","0.0-3.0-0.124","partial","Male","33","United States of America","","C505658","WA","freqGain","Mozilla/5.0 (Windows NT 6.3; WOW64) AppleWebKit/537.36 (KHTML, like Gecko) Chrome/78.0.3904.99 Safari/537.36 Vivaldi/2.9.1705.41","0.98","","565","","<img src = 'img/A0-B1-L0-W0.jpg' width = '600'>","1","125","","","","",""
"","html-keyboard-response","259","839075","0.0-3.0-1.124","partial","Male","33","United States of America","","C505658","WA","freqGain","Mozilla/5.0 (Windows NT 6.3; WOW64) AppleWebKit/537.36 (KHTML, like Gecko) Chrome/78.0.3904.99 Safari/537.36 Vivaldi/2.9.1705.41","0.98","","null","","You avoided this hive. You earned <b>0 </b>points.","","125","null","0","84","",""
"","html-button-response","260","839882","0.0-3.0-0.125","partial","Male","33","United States of America","","C505658","WA","freqGain","Mozilla/5.0 (Windows NT 6.3; WOW64) AppleWebKit/537.36 (KHTML, like Gecko) Chrome/78.0.3904.99 Safari/537.36 Vivaldi/2.9.1705.41","0.98","","806","","<img src = 'img/A1-B1-L0-W0.jpg' width = '600'>","1","126","","","","",""
"","html-keyboard-response","261","841883","0.0-3.0-1.125","partial","Male","33","United States of America","","C505658","WA","freqGain","Mozilla/5.0 (Windows NT 6.3; WOW64) AppleWebKit/537.36 (KHTML, like Gecko) Chrome/78.0.3904.99 Safari/537.36 Vivaldi/2.9.1705.41","0.98","","null","","You avoided this hive. You earned <b>0 </b>points.","","126","null","0","84","",""
"","html-button-response","262","843107","0.0-3.0-0.126","partial","Male","33","United States of America","","C505658","WA","freqGain","Mozilla/5.0 (Windows NT 6.3; WOW64) AppleWebKit/537.36 (KHTML, like Gecko) Chrome/78.0.3904.99 Safari/537.36 Vivaldi/2.9.1705.41","0.98","","1224","","<img src = 'img/A1-B1-L1-W1.jpg' width = '600'>","0","127","","","","",""
"","html-keyboard-response","263","845110","0.0-3.0-1.126","partial","Male","33","United States of America","","C505658","WA","freqGain","Mozilla/5.0 (Windows NT 6.3; WOW64) AppleWebKit/537.36 (KHTML, like Gecko) Chrome/78.0.3904.99 Safari/537.36 Vivaldi/2.9.1705.41","0.98","","null","","You successfully harvested honey! You earned <b>3 </b>points.","","127","null","3","87","",""
"","html-button-response","264","846018","0.0-3.0-0.127","partial","Male","33","United States of America","","C505658","WA","freqGain","Mozilla/5.0 (Windows NT 6.3; WOW64) AppleWebKit/537.36 (KHTML, like Gecko) Chrome/78.0.3904.99 Safari/537.36 Vivaldi/2.9.1705.41","0.98","","907","","<img src = 'img/A1-B0-L1-W0.jpg' width = '600'>","1","128","","","","",""
"","html-keyboard-response","265","848019","0.0-3.0-1.127","partial","Male","33","United States of America","","C505658","WA","freqGain","Mozilla/5.0 (Windows NT 6.3; WOW64) AppleWebKit/537.36 (KHTML, like Gecko) Chrome/78.0.3904.99 Safari/537.36 Vivaldi/2.9.1705.41","0.98","","null","","You avoided this hive. You earned <b>0 </b>points.","","128","null","0","87","",""
"","external-html","266","853964","0.0-4.0","partial","Male","33","United States of America","","C505658","WA","freqGain","Mozilla/5.0 (Windows NT 6.3; WOW64) AppleWebKit/537.36 (KHTML, like Gecko) Chrome/78.0.3904.99 Safari/537.36 Vivaldi/2.9.1705.41","0.98","","5407.275000005029","","","","","","","","./pages/testinstr-fl.html",""
"","html-button-response","267","855739","0.0-5.0-0.0","partial","Male","33","United States of America","","C505658","WA","freqGain","Mozilla/5.0 (Windows NT 6.3; WOW64) AppleWebKit/537.36 (KHTML, like Gecko) Chrome/78.0.3904.99 Safari/537.36 Vivaldi/2.9.1705.41","0.98","","1774","","<img src = 'img/A1-B0-L0-W0.jpg' width = '600'>","1","","","","","","1"
"","html-keyboard-response","268","857141","0.0-5.0-1.0","partial","Male","33","United States of America","","C505658","WA","freqGain","Mozilla/5.0 (Windows NT 6.3; WOW64) AppleWebKit/537.36 (KHTML, like Gecko) Chrome/78.0.3904.99 Safari/537.36 Vivaldi/2.9.1705.41","0.98","","null","","","","","null","0","87","","1"
"","html-button-response","269","857700","0.0-5.0-0.1","partial","Male","33","United States of America","","C505658","WA","freqGain","Mozilla/5.0 (Windows NT 6.3; WOW64) AppleWebKit/537.36 (KHTML, like Gecko) Chrome/78.0.3904.99 Safari/537.36 Vivaldi/2.9.1705.41","0.98","","558","","<img src = 'img/A1-B0-L1-W0.jpg' width = '600'>","1","","","","","","2"
"","html-keyboard-response","270","859103","0.0-5.0-1.1","partial","Male","33","United States of America","","C505658","WA","freqGain","Mozilla/5.0 (Windows NT 6.3; WOW64) AppleWebKit/537.36 (KHTML, like Gecko) Chrome/78.0.3904.99 Safari/537.36 Vivaldi/2.9.1705.41","0.98","","null","","","","","null","0","87","","2"
